id,gender,dob,date,n_trial,test_stage,condition,tested_position,shape_0,shape_1,shape_2,shape_3,color_0,color_1,color_2,color_3,color_angle_0,color_angle_1,color_angle_2,color_angle_3,correct_response,correct_response_angle,response,response_angle,wheel_rotation,reaction_time
Pri_ET_Study1_4,M,0/0/1900,2022-07-07_11h54.14.926,1,practice_pri,Prioritise2,3,square,cross,triangle,circle,"0.8189948021797893,0.2510686603392729,-1.0","-0.0889322071979689,0.49470485377678974,-0.17530036558846096","0.6823545184579658,0.19890605819631269,0.6567852503614975","1.0,-0.053431764767480794,-1.0",94,182,282,50,"1.0,-0.053431764767480794,-1.0",50,"0.019624625934283157,0.48605247051678724,-0.428609032695351",167,110,9.487412100000256
Pri_ET_Study1_4,M,0/0/1900,2022-07-07_11h54.14.926,2,practice_pri,Prioritise1,0,square,triangle,cross,circle,"1.0,-0.291416597096681,-0.18651092035548889","-0.15087465470231598,0.47711162872615454,0.24867635980838454","0.7481042841002781,0.28401253410301863,-1.0","0.28235212283095645,0.4390974279014652,-1.0",3,211,100,140,"1.0,-0.291416597096681,-0.18651092035548889",3,"1.0,-0.2583995670372059,-0.4160170008955538",18,121,10.085149999999885
Pri_ET_Study1_4,M,0/0/1900,2022-07-07_11h54.14.926,3,practice_pri,Prioritise4,1,cross,triangle,square,circle,"1.0,-0.1694459751095364,-0.6968170409133772","-0.15691856372514257,0.4811251279442219,0.20925454252068332","0.10890282843090082,0.4735368131811257,-0.6233623294930688","1.0,-0.2117453636986133,0.16700499532847024",34,208,157,338,"-0.15691856372514257,0.4811251279442219,0.20925454252068332",208,"0.7004475934634664,0.30455679594870433,-1.0",104,264,10.490185900000142
Pri_ET_Study1_4,M,0/0/1900,2022-07-07_11h54.14.926,4,practice_pri,Prioritise3,3,circle,cross,square,triangle,"-0.08288077159008311,0.49449913405181634,-0.1914000323192474","0.38240568475417525,0.4136729392938614,-1.0","1.0,-0.2618543528600009,0.0306611530728087","1.0,-0.13481497066722903,-0.8172789642511413",181,131,348,39,"1.0,-0.13481497066722903,-0.8172789642511413",39,"-0.007535811164553707,0.4303825516742039,0.4937312314227156",233,252,7.872455699999591
Pri_ET_Study1_4,M,0/0/1900,2022-07-07_11h54.14.926,5,practice_pri,NoPrioritise,1,cross,triangle,circle,square,"0.07004997715874661,0.40859431628906884,0.5522929170622126","1.0,-0.07604755533137741,-1.0","1.0,-0.10086551076024819,0.3631766774585774","0.5335383805596645,0.36747902832868284,-1.0",240,47,322,118,"1.0,-0.07604755533137741,-1.0",47,"1.0,-0.060989074760531836,-1.0",49,312,5.126215600000251
Pri_ET_Study1_4,M,0/0/1900,2022-07-07_11h54.14.926,1,test,Prioritise1,3,square,cross,circle,triangle,"0.7874973343482177,0.15108074255601633,0.6309286527694675","0.9229356114863154,0.19699631777014193,-1.0","1.0,-0.10580765013847959,-0.9756165541078137","0.09441071644993415,0.40170970408167506,0.5670564126145141",289,85,43,242,"0.09441071644993415,0.40170970408167506,0.5670564126145141",242,"1.0,-0.24898244687401672,0.0724226931177736",345,332,8.780622199999925
Pri_ET_Study1_4,M,0/0/1900,2022-07-07_11h54.14.926,2,test,Prioritise3,3,cross,circle,square,triangle,"1.0,-0.12765325079304635,-0.8480385611780058","0.02803139784776887,0.4850479085911541,-0.44669070010662637","1.0,-0.24425036060701033,0.08619108045783674","0.6048714455845987,0.34221696469187823,-1.0",40,166,344,112,"0.6048714455845987,0.34221696469187823,-1.0",112,"0.05398205218015839,0.48170764156945833,-0.5023703861935837",163,282,4.972346699999434
Pri_ET_Study1_4,M,0/0/1900,2022-07-07_11h54.14.926,3,test,NoPrioritise,3,cross,triangle,circle,square,"0.6056610145008174,0.2310032177113197,0.6677762187869551","1.0,-0.07007995956776203,0.4066709204115653","0.7599790593392,0.278698430329378,-1.0","-0.12085421394465079,0.49482727509491764,-0.08063336981743141",277,318,99,188,"-0.12085421394465079,0.49482727509491764,-0.08063336981743141",188,"0.7836643519746782,0.2678576623980824,-1.0",97,93,6.069815599999856
Pri_ET_Study1_4,M,0/0/1900,2022-07-07_11h54.14.926,4,test,Prioritise2,2,square,circle,cross,triangle,"1.0,0.14454808295369936,-1.0","0.43579397082986615,0.29501209376045523,0.6694809165992386","-0.1415152911985038,0.4725588943334964,0.2868282896334675","1.0,0.023895135487088437,0.520455959599228",77,266,214,306,"-0.1415152911985038,0.4725588943334964,0.2868282896334675",214,"0.21850949126575658,0.4532202130288874,-0.9933869065076532",146,13,5.413024299999961
Pri_ET_Study1_4,M,0/0/1900,2022-07-07_11h54.14.926,5,test,Prioritise2,2,cross,triangle,circle,square,"0.37478692104604905,0.3159453148278393,0.6623940312376342","-0.1598212484830719,0.4866460428277808,0.1409432704458322","1.0,-0.18672585607811187,0.21894575397790916","1.0,-0.20149881210311282,-0.6002331830476271",262,203,334,29,"1.0,-0.18672585607811187,0.21894575397790916",334,"-0.02724900693809007,0.43596400275120595,0.47511170232003863",231,29,4.441842899999756
Pri_ET_Study1_4,M,0/0/1900,2022-07-07_11h54.14.926,6,test,Prioritise2,0,square,triangle,circle,cross,"-0.15936350859590664,0.487578374203653,0.1269149288768463","0.4397882380638529,0.39726260220805054,-1.0","0.10691635848548953,0.39815526341168916,0.5740986907036785","1.0,-0.291416597096681,-0.18651092035548889",202,126,243,3,"-0.15936350859590664,0.487578374203653,0.1269149288768463",202,"-0.1598212484830719,0.4866460428277808,0.1409432704458322",203,216,5.172258300000067
Pri_ET_Study1_4,M,0/0/1900,2022-07-07_11h54.14.926,7,test,Prioritise2,0,triangle,circle,cross,square,"1.0,-0.2618543528600009,0.0306611530728087","0.35968141037855483,0.3209804608831912,0.6599831247203418","1.0,0.031678509722878445,0.528693730626498","-0.0889322071979689,0.49470485377678974,-0.17530036558846096",348,261,305,182,"1.0,-0.2618543528600009,0.0306611530728087",348,"1.0,-0.06229796743051119,0.4171389626044979",317,41,5.394709199999852
Pri_ET_Study1_4,M,0/0/1900,2022-07-07_11h54.14.926,8,test,Prioritise3,0,triangle,circle,cross,square,"-0.13746749759655974,0.49384364036211803,-0.01935357496354817","1.0,-0.2810383691272422,-0.05469022987079308","1.0,-0.08353952619481586,-1.0","0.5691306813430501,0.3551652128948415,-1.0",192,354,46,115,"-0.13746749759655974,0.49384364036211803,-0.01935357496354817",192,"0.8423878648894922,0.2395276862660105,-1.0",92,344,4.008619799999906
Pri_ET_Study1_4,M,0/0/1900,2022-07-07_11h54.14.926,9,test,Prioritise2,1,square,cross,circle,triangle,"0.4981526525436166,0.3791643150394166,-1.0","1.0,-0.23930972970484676,0.09987881270213972","0.9303101871846857,0.07776559495072588,0.5737236459068971","0.03656203285471027,0.4839890544285097,-0.46499532916065",121,343,299,165,"1.0,-0.23930972970484676,0.09987881270213972",343,"1.0,-0.28704790815198966,-0.09816451385922986",357,183,5.194639999999708
Pri_ET_Study1_4,M,0/0/1900,2022-07-07_11h54.14.926,10,test,Prioritise4,2,square,circle,triangle,cross,"1.0,0.023895135487088437,0.520455959599228","-0.06359610428535867,0.4935649245563736,-0.24027710533734647","1.0,0.03716450464441401,-1.0","1.0,-0.283482916447115,-0.29186272671519153",306,178,62,10,"1.0,0.03716450464441401,-1.0",62,"1.0,0.007155954649565421,-1.0",58,188,4.189795499999491
Pri_ET_Study1_4,M,0/0/1900,2022-07-07_11h54.14.926,11,test,Prioritise2,3,square,cross,circle,triangle,"0.8168605703912253,0.13684827598857496,0.6213530935889016","1.0,0.09568719202827336,-1.0","1.0,-0.24030349193845646,-0.4804258498410512","0.024156992038590452,0.42147876676365525,0.5201127943356356",291,70,22,236,"0.024156992038590452,0.42147876676365525,0.5201127943356356",236,"1.0,-0.24976805918886447,-0.4479639557291707",20,324,3.938941100000193
Pri_ET_Study1_4,M,0/0/1900,2022-07-07_11h54.14.926,12,test,Prioritise3,3,square,cross,circle,triangle,"0.2563330525591274,0.3540064263668754,0.6360281906414551","0.9439739668489959,0.07017173146500566,0.5667550331301558","0.40522526965537775,0.4073086888830977,-1.0","-0.04985376064386149,0.4926777683571715,-0.2733707743273047",254,300,129,176,"-0.04985376064386149,0.4926777683571715,-0.2733707743273047",176,"0.30417514509994215,0.43389432139899475,-1.0",138,110,3.4576835000007122
Pri_ET_Study1_4,M,0/0/1900,2022-07-07_11h54.14.926,13,test,Prioritise4,0,circle,square,cross,triangle,"1.0,0.022205290041545256,-1.0","0.019624625934283157,0.48605247051678724,-0.428609032695351","-0.09355100115627091,0.45554214766479406,0.3928507547204487","1.0,-0.28331765203541326,-0.06912673399707303",60,167,223,355,"1.0,0.022205290041545256,-1.0",60,"0.058211064666331636,0.41192535001918484,0.5445760826660213",239,65,3.689723100000265
Pri_ET_Study1_4,M,0/0/1900,2022-07-07_11h54.14.926,14,test,NoPrioritise,3,triangle,cross,circle,square,"1.0,-0.023115205136178596,-1.0","0.3485477954945324,0.4227267056127266,-1.0","0.7127176267031001,0.18557291042394586,0.6506302425082333","-0.15913672951032076,0.48350679120805196,0.18230705521727808",54,134,284,206,"-0.15913672951032076,0.48350679120805196,0.18230705521727808",206,"-0.15857178695416452,0.48845422840718666,0.1127707600476957",201,282,6.124207800000477
Pri_ET_Study1_4,M,0/0/1900,2022-07-07_11h54.14.926,15,test,Prioritise4,2,circle,triangle,cross,square,"-0.007535811164553707,0.4303825516742039,0.4937312314227156","1.0,0.13084904670314157,-1.0","-0.14097292288545527,0.4934633616179327,-0.004268922352566595","1.0,-0.04666697700988032,0.4375655321668761",233,75,193,315,"-0.14097292288545527,0.4934633616179327,-0.004268922352566595",193,"1.0,-0.2914084206358549,-0.1716625835351976",2,321,5.96189030000005
Pri_ET_Study1_4,M,0/0/1900,2022-07-07_11h54.14.926,16,test,NoPrioritise,3,triangle,circle,cross,square,"0.5593128013847881,0.24938009178326226,0.6713213889936891","-0.09478536258948067,0.49485771099788134,-0.15929400236046964","1.0,-0.2905679542092485,-0.21635494529981825","1.0,0.06672643376273091,-1.0",274,183,5,66,"1.0,0.06672643376273091,-1.0",66,"-0.04985376064386149,0.4926777683571715,-0.2733707743273047",176,1,4.5310411999998905
Pri_ET_Study1_4,M,0/0/1900,2022-07-07_11h54.14.926,17,test,Prioritise2,1,cross,circle,triangle,square,"0.03656203285471027,0.4839890544285097,-0.46499532916065","1.0,0.10281785561567158,-1.0","0.8168605703912253,0.13684827598857496,0.6213530935889016","1.0,-0.28715474606071,-0.26149890951485844",165,71,291,8,"1.0,0.10281785561567158,-1.0",71,"1.0,-0.045861603138592444,-1.0",51,50,3.628049799999644
Pri_ET_Study1_4,M,0/0/1900,2022-07-07_11h54.14.926,18,test,NoPrioritise,2,square,cross,triangle,circle,"1.0,-0.0932311933171065,0.374286934875081","1.0,-0.11314379054822865,-0.9277147292103822","-0.1415152911985038,0.4725588943334964,0.2868282896334675","0.509921421288337,0.37533864292099284,-1.0",321,42,214,120,"-0.1415152911985038,0.4725588943334964,0.2868282896334675",214,"-0.0864279937772866,0.4533299305616785,0.40378459741649797",224,272,2.5670349000001806
Pri_ET_Study1_4,M,0/0/1900,2022-07-07_11h54.14.926,19,test,NoPrioritise,3,cross,triangle,circle,square,"1.0,-0.283482916447115,-0.29186272671519153","0.5438403016684124,0.25535465854340766,0.6719910833849003","0.1774490411200258,0.4614263698132157,-0.8044096137074778","-0.017538974095646753,0.43320838581829424,0.48452289736445553",10,273,150,232,"-0.017538974095646753,0.43320838581829424,0.48452289736445553",232,"-0.02724900693809007,0.43596400275120595,0.47511170232003863",231,126,3.157990499999869
Pri_ET_Study1_4,M,0/0/1900,2022-07-07_11h54.14.926,20,test,Prioritise4,2,cross,circle,triangle,square,"1.0,-0.023115205136178596,-1.0","0.37106831880418345,0.41675617985472035,-1.0","0.697563521415238,0.19227379976898162,0.6538323072937366","1.0,-0.25349859092244853,0.058576446168723484",54,132,283,346,"0.697563521415238,0.19227379976898162,0.6538323072937366",283,"0.4665589352747248,0.2840716923699367,0.6714844115718321",268,338,3.828388900000391
Pri_ET_Study1_4,M,0/0/1900,2022-07-07_11h54.14.926,21,test,NoPrioritise,0,circle,cross,triangle,square,"1.0,-0.12344048141961106,0.3289459564990056","0.21370971933434912,0.36697709911931464,0.6220261074603506","1.0,-0.09842467873037941,-1.0","0.7836643519746782,0.2678576623980824,-1.0",325,251,44,97,"1.0,-0.12344048141961106,0.3289459564990056",325,"1.0,-0.23416809090988489,0.11348302116348141",342,320,2.64141810000001
Pri_ET_Study1_4,M,0/0/1900,2022-07-07_11h54.14.926,22,test,NoPrioritise,2,circle,square,cross,triangle,"0.6210691465439071,0.22472865664823272,0.6660842894513506","0.18759316868675757,0.45946387343509576,-0.8398972692549822","0.7718332302050808,0.2733134055615505,-1.0","-0.15087465470231598,0.47711162872615454,0.24867635980838454",278,149,98,211,"0.7718332302050808,0.2733134055615505,-1.0",98,"-0.0889322071979689,0.49470485377678974,-0.17530036558846096",182,256,4.3671323999997185
Pri_ET_Study1_4,M,0/0/1900,2022-07-07_11h54.14.926,23,test,Prioritise3,1,triangle,square,circle,cross,"1.0,-0.17339639938985352,0.2442586263282529","0.3373683384989987,0.425614728337375,-1.0","1.0,-0.2541916545294901,-0.43193236346031305","0.7726890832158932,0.15810653737494773,0.6353563968956581",332,135,19,288,"0.3373683384989987,0.425614728337375,-1.0",135,"0.25011230249462657,0.4464347244570299,-1.0",143,3,4.9605578000000605
Pri_ET_Study1_4,M,0/0/1900,2022-07-07_11h54.14.926,24,test,Prioritise3,1,triangle,square,cross,circle,"1.0,-0.14190666083918357,-0.7896703829265752","-0.10043403746491275,0.49495767021285575,-0.14337977127983403","0.03525654226328623,0.4183671124064994,0.5284836519992187","0.5335383805596645,0.36747902832868284,-1.0",38,184,237,118,"-0.10043403746491275,0.49495767021285575,-0.14337977127983403",184,"0.6517915958318632,0.21196052870658733,0.661939301509457",280,238,6.325789800000166
Pri_ET_Study1_4,M,0/0/1900,2022-07-07_11h54.14.926,25,test,Prioritise2,0,square,triangle,circle,cross,"0.2715377535601935,0.44160513045338035,-1.0","1.0,-0.2914084206358549,-0.1716625835351976","-0.045760705841983884,0.4412666063320212,0.45569155140365925","0.9001622899209403,0.20948101299508481,-1.0",141,2,229,87,"0.2715377535601935,0.44160513045338035,-1.0",141,"-0.10043403746491275,0.49495767021285575,-0.14337977127983403",184,235,3.6922825999999986
Pri_ET_Study1_4,M,0/0/1900,2022-07-07_11h54.14.926,26,test,Prioritise4,3,circle,square,triangle,cross,"-0.14500574250124976,0.47413711311303364,0.2742570559677715","1.0,-0.09100024043058197,-1.0","0.5453823652594301,0.36344457638027117,-1.0","1.0,0.008268781307839035,0.5033766660072689",213,45,117,308,"1.0,0.008268781307839035,0.5033766660072689",308,"1.0,-0.03882752461224859,0.44751763152896373",314,292,3.364381099999264
Pri_ET_Study1_4,M,0/0/1900,2022-07-07_11h54.14.926,27,test,NoPrioritise,3,square,triangle,cross,circle,"1.0,-0.19952917352700617,0.19318579588388318","0.4864131283203974,0.38292092452220805,-1.0","1.0,-0.21911833444213913,-0.5474132739956148","0.03525654226328623,0.4183671124064994,0.5284836519992187",336,122,26,237,"0.03525654226328623,0.4183671124064994,0.5284836519992187",237,"1.0,-0.2853220527670477,-0.0836186653125478",356,344,2.730831200000466
Pri_ET_Study1_4,M,0/0/1900,2022-07-07_11h54.14.926,28,test,Prioritise2,1,square,circle,cross,triangle,"-0.11280811015512238,0.4617870748317987,0.35899735609320693","0.011345098196205106,0.4870029319956142,-0.41073039696963887","0.6823545184579658,0.19890605819631269,0.6567852503614975","0.5929450132200651,0.3466038519932022,-1.0",220,168,282,113,"0.011345098196205106,0.4870029319956142,-0.41073039696963887",168,"0.12802681261339854,0.47036395437091305,-0.6683938146358337",155,106,3.830500999999458
Pri_ET_Study1_4,M,0/0/1900,2022-07-07_11h54.14.926,29,test,Prioritise4,2,triangle,square,cross,circle,"-0.09478536258948067,0.49485771099788134,-0.15929400236046964","1.0,-0.24898244687401672,0.0724226931177736","0.8602068900008202,0.11507220116757,0.6052161878467197","0.6407010103455535,0.32862970770224886,-1.0",183,345,294,109,"0.8602068900008202,0.11507220116757,0.6052161878467197",294,"1.0,-0.29111130123666484,-0.15686324257888173",1,41,3.5401411000002554
Pri_ET_Study1_4,M,0/0/1900,2022-07-07_11h54.14.926,30,test,Prioritise4,0,circle,cross,square,triangle,"1.0,-0.20571451687417974,0.18014638001872707","1.0,-0.023115205136178596,-1.0","0.1184165720364383,0.4719787961363635,-0.6454646836219573","0.5810306884554026,0.3509198779468534,-1.0",337,54,156,114,"1.0,-0.20571451687417974,0.18014638001872707",337,"1.0,0.08129056571751603,-1.0",68,234,6.585726199999954
Pri_ET_Study1_4,M,0/0/1900,2022-07-07_11h54.14.926,31,test,Prioritise3,3,circle,triangle,square,cross,"1.0,-0.015534070910116049,-1.0","0.509921421288337,0.37533864292099284,-1.0","0.7874973343482177,0.15108074255601633,0.6309286527694675","0.07004997715874661,0.40859431628906884,0.5522929170622126",55,120,289,240,"0.07004997715874661,0.40859431628906884,0.5522929170622126",240,"0.5128942075651803,0.26707393527284795,0.6725600501236935",271,148,4.0479803999996875
Pri_ET_Study1_4,M,0/0/1900,2022-07-07_11h54.14.926,32,test,Prioritise4,0,square,cross,triangle,circle,"1.0,-0.09842467873037941,-1.0","0.07004997715874661,0.40859431628906884,0.5522929170622126","0.9303101871846857,0.07776559495072588,0.5737236459068971","0.6048714455845987,0.34221696469187823,-1.0",44,240,299,112,"1.0,-0.09842467873037941,-1.0",44,"0.17237529551869346,0.3792456671279014,0.6058334931269098",248,347,4.6966590000001815
Pri_ET_Study1_4,M,0/0/1900,2022-07-07_11h54.14.926,33,test,Prioritise3,3,triangle,square,cross,circle,"0.8458569493622168,0.12238552790175761,0.6108291411981881","0.8189948021797893,0.2510686603392729,-1.0","0.18759316868675757,0.45946387343509576,-0.8398972692549822","1.0,-0.2914084206358549,-0.1716625835351976",293,94,149,2,"1.0,-0.2914084206358549,-0.1716625835351976",2,"0.6646065852612066,0.3192149609683923,-1.0",107,244,4.905592099999922
Pri_ET_Study1_4,M,0/0/1900,2022-07-07_11h54.14.926,34,test,NoPrioritise,2,cross,triangle,circle,square,"-0.04985376064386149,0.4926777683571715,-0.2733707743273047","0.5593128013847881,0.24938009178326226,0.6713213889936891","1.0,0.06672643376273091,-1.0","0.557247182986663,0.35934004439537626,-1.0",176,274,66,116,"1.0,0.06672643376273091,-1.0",66,"0.5453823652594301,0.36344457638027117,-1.0",117,43,3.8176917000000685
Pri_ET_Study1_4,M,0/0/1900,2022-07-07_11h54.14.926,35,test,Prioritise3,3,square,triangle,cross,circle,"-0.06301515924349677,0.44629443292921844,0.43549282839157066","1.0,0.04460337025072447,-1.0","0.4665589352747248,0.2840716923699367,0.6714844115718321","1.0,-0.2759589912597996,-0.3378595329546661",227,63,268,13,"1.0,-0.2759589912597996,-0.3378595329546661",13,"-0.12881863109484093,0.46745492896353924,0.32362925960524147",217,246,4.172430300000087
Pri_ET_Study1_4,M,0/0/1900,2022-07-07_11h54.14.926,36,test,Prioritise4,2,square,cross,triangle,circle,"1.0,-0.030699357614306977,-1.0","0.21370971933434912,0.36697709911931464,0.6220261074603506","0.37106831880418345,0.41675617985472035,-1.0","1.0,-0.12344048141961106,0.3289459564990056",53,251,132,325,"0.37106831880418345,0.41675617985472035,-1.0",132,"1.0,0.10281785561567158,-1.0",71,148,2.772569200000362
Pri_ET_Study1_4,M,0/0/1900,2022-07-07_11h54.14.926,37,test,Prioritise1,1,circle,triangle,square,cross,"0.5335383805596645,0.36747902832868284,-1.0","1.0,-0.14892208927791584,-0.7642951287839744","-0.12384754992127334,0.4656289401720195,0.3355818842165046","0.4051864188365102,0.30563705046778256,0.6664498358678796",118,37,218,264,"1.0,-0.14892208927791584,-0.7642951287839744",37,"1.0,-0.030699357614306977,-1.0",53,44,1.924508699999933
Pri_ET_Study1_4,M,0/0/1900,2022-07-07_11h54.14.926,38,test,Prioritise1,0,triangle,square,cross,circle,"0.7836643519746782,0.2678576623980824,-1.0","-0.03545149328753128,0.4915787209123279,-0.3069086161051545","1.0,-0.060989074760531836,-1.0","0.2277843781848521,0.3627318956570289,0.6269388339435948",97,174,49,252,"0.7836643519746782,0.2678576623980824,-1.0",97,"1.0,0.13084904670314157,-1.0",75,291,6.110289500000363
Pri_ET_Study1_4,M,0/0/1900,2022-07-07_11h54.14.926,39,test,Prioritise2,1,cross,triangle,circle,square,"-0.07663707943429687,0.49424057193593485,-0.2075945922293636","1.0,-0.20571451687417974,0.18014638001872707","0.5438403016684124,0.25535465854340766,0.6719910833849003","0.4864131283203974,0.38292092452220805,-1.0",180,337,273,122,"1.0,-0.20571451687417974,0.18014638001872707",337,"1.0,-0.25349859092244853,0.058576446168723484",346,209,4.292402699999911
Pri_ET_Study1_4,M,0/0/1900,2022-07-07_11h54.14.926,40,test,Prioritise2,3,square,triangle,circle,cross,"-0.15325530146069954,0.47850880592239364,0.23567289266690317","1.0,-0.22467733398512213,-0.5303566464837048","0.6210691465439071,0.22472865664823272,0.6660842894513506","0.6765582342033039,0.31440040312493167,-1.0",210,25,278,106,"0.6765582342033039,0.31440040312493167,-1.0",106,"-0.004817967995419115,0.4887422579776717,-0.37551595656205394",170,250,3.7302577999998903
Pri_ET_Study1_4,M,0/0/1900,2022-07-07_11h54.14.926,41,test,Prioritise4,1,square,triangle,cross,circle,"-0.12881863109484093,0.46745492896353924,0.32362925960524147","0.9454860823634645,0.18425356693025585,-1.0","1.0,-0.13481497066722903,-0.8172789642511413","0.4282253351913974,0.40067838587068505,-1.0",217,83,39,127,"0.9454860823634645,0.18425356693025585,-1.0",83,"1.0,0.13084904670314157,-1.0",75,33,5.074449400000049
Pri_ET_Study1_4,M,0/0/1900,2022-07-07_11h54.14.926,42,test,Prioritise3,2,square,cross,triangle,circle,"1.0,-0.2696580629443429,-0.3688697412252795","1.0,-0.19319706407583936,0.20612000948251996","0.03656203285471027,0.4839890544285097,-0.46499532916065","0.7362113369355152,0.2892555466706437,-1.0",15,335,165,101,"0.03656203285471027,0.4839890544285097,-0.46499532916065",165,"0.09948789533259128,0.47503830359136323,-0.601955130836429",158,321,2.4801793999995425
Pri_ET_Study1_4,M,0/0/1900,2022-07-07_11h54.14.926,43,test,NoPrioritise,3,square,triangle,circle,cross,"1.0,-0.28715474606071,-0.26149890951485844","-0.1481252589400609,0.4756545429797898,0.26153874370652797","0.18759316868675757,0.45946387343509576,-0.8398972692549822","0.8189948021797893,0.2510686603392729,-1.0",8,212,149,94,"0.8189948021797893,0.2510686603392729,-1.0",94,"1.0,-0.20149881210311282,-0.6002331830476271",29,270,3.76357999999982
Pri_ET_Study1_4,M,0/0/1900,2022-07-07_11h54.14.926,44,test,Prioritise3,0,cross,triangle,circle,square,"0.2715377535601935,0.44160513045338035,-1.0","1.0,-0.04666697700988032,0.4375655321668761","1.0,0.029697581538389972,-1.0","0.3148218664135791,0.3356097028178475,0.6512264970146455",141,315,61,258,"0.2715377535601935,0.44160513045338035,-1.0",141,"1.0,-0.20752138035248524,-0.5823144238115788",28,321,3.607540599999993
Pri_ET_Study1_4,M,0/0/1900,2022-07-07_11h54.14.926,45,test,Prioritise4,2,triangle,square,cross,circle,"0.37106831880418345,0.41675617985472035,-1.0","0.4051864188365102,0.30563705046778256,0.6664498358678796","1.0,-0.0855518419522695,0.38524161028667625","0.9342399836420399,0.1906568045828605,-1.0",132,264,320,84,"1.0,-0.0855518419522695,0.38524161028667625",320,"0.40522526965537775,0.4073086888830977,-1.0",129,354,3.4419722000002366
Pri_ET_Study1_4,M,0/0/1900,2022-07-07_11h54.14.926,46,test,Prioritise1,3,triangle,square,cross,circle,"0.1774490411200258,0.4614263698132157,-0.8044096137074778","0.8307090529045498,0.2453327610063578,-1.0","0.8314067698500829,0.129644828397681,0.6162087510840306","-0.15913672951032076,0.48350679120805196,0.18230705521727808",150,93,292,206,"-0.15913672951032076,0.48350679120805196,0.18230705521727808",206,"0.557247182986663,0.35934004439537626,-1.0",116,205,3.2262278000007427
Pri_ET_Study1_4,M,0/0/1900,2022-07-07_11h54.14.926,47,test,NoPrioritise,0,circle,square,triangle,cross,"1.0,-0.24976805918886447,-0.4479639557291707","0.49743207809976986,0.2728177294164349,0.672458831583457","0.6526534052453359,0.32395804637990677,-1.0","-0.06301515924349677,0.44629443292921844,0.43549282839157066",20,270,108,227,"1.0,-0.24976805918886447,-0.4479639557291707",20,"0.911575527904773,0.20327130372654878,-1.0",86,38,3.660479799999848
Pri_ET_Study1_4,M,0/0/1900,2022-07-07_11h54.14.926,48,test,Prioritise4,0,square,triangle,circle,cross,"0.10890282843090082,0.4735368131811257,-0.6233623294930688","1.0,0.11693500061052231,-1.0","0.013319861281873457,0.4245182348375207,0.5115287599103473","1.0,-0.289651960671372,-0.12741280502186536",157,73,235,359,"0.10890282843090082,0.4735368131811257,-0.6233623294930688",157,"1.0,-0.2853220527670477,-0.0836186653125478",356,222,4.648244399999385
Pri_ET_Study1_4,M,0/0/1900,2022-07-07_11h54.14.926,49,test,Prioritise3,2,square,triangle,circle,cross,"1.0,0.1377261376429495,-1.0","0.011345098196205106,0.4870029319956142,-0.41073039696963887","0.8885895249151152,0.10029123080933622,0.593298310174416","-0.1552691192795369,0.47984650043174004,0.22253130766167373",76,168,296,209,"0.8885895249151152,0.10029123080933622,0.593298310174416",296,"0.8602068900008202,0.11507220116757,0.6052161878467197",294,6,4.210931399999936
Pri_ET_Study1_4,M,0/0/1900,2022-07-07_11h54.14.926,50,test,Prioritise4,3,cross,triangle,circle,square,"1.0,-0.223312447401106,0.14042906010430367","0.09017416231209929,0.4764835565228893,-0.581140049938324","1.0,-0.1694459751095364,-0.6968170409133772","0.6885060196604067,0.3095143481419429,-1.0",340,159,34,105,"0.6885060196604067,0.3095143481419429,-1.0",105,"0.7278119810668549,0.17880451220180715,0.6471802765379799",285,241,7.182694499999343
Pri_ET_Study1_4,M,0/0/1900,2022-07-07_11h54.14.926,51,test,NoPrioritise,2,square,circle,cross,triangle,"1.0,-0.23416809090988489,0.11348302116348141","-0.1481252589400609,0.4756545429797898,0.26153874370652797","1.0,0.12391818455152381,-1.0","0.4665589352747248,0.2840716923699367,0.6714844115718321",342,212,74,268,"1.0,0.12391818455152381,-1.0",74,"0.4282253351913974,0.40067838587068505,-1.0",127,216,5.009157399999822
Pri_ET_Study1_4,M,0/0/1900,2022-07-07_11h54.14.926,52,test,Prioritise2,2,circle,square,triangle,cross,"1.0,-0.2583995670372059,-0.4160170008955538","1.0,0.12391818455152381,-1.0","-0.14715582087117385,0.4925402828135286,0.025608434090147236","0.2419946445565604,0.35840841428502257,0.6316066564714324",18,74,195,253,"-0.14715582087117385,0.4925402828135286,0.025608434090147236",195,"-0.028015013033697245,0.49094955428922593,-0.32385780920023366",173,55,5.1763692000004085
Pri_ET_Study1_4,M,0/0/1900,2022-07-07_11h54.14.926,53,test,Prioritise2,3,circle,triangle,cross,square,"-0.15936350859590664,0.487578374203653,0.1269149288768463","1.0,-0.13481497066722903,-0.8172789642511413","0.8189948021797893,0.2510686603392729,-1.0","0.13253781604398185,0.3908200528647623,0.5874938236427092",202,39,94,245,"0.13253781604398185,0.3908200528647623,0.5874938236427092",245,"0.7836643519746782,0.2678576623980824,-1.0",97,247,5.385013000000072
Pri_ET_Study1_4,M,0/0/1900,2022-07-07_11h54.14.926,54,test,Prioritise4,1,triangle,circle,square,cross,"0.1456375685133382,0.387038501124352,0.5938426811268567","-0.07663707943429687,0.49424057193593485,-0.2075945922293636","0.8072476110492377,0.25673500061136667,-1.0","1.0,-0.19319706407583936,0.20612000948251996",246,180,95,335,"-0.07663707943429687,0.49424057193593485,-0.2075945922293636",180,"1.0,-0.1558548551326704,-0.7405909184559469",36,192,3.655743000000257
Pri_ET_Study1_4,M,0/0/1900,2022-07-07_11h54.14.926,55,test,Prioritise4,0,square,circle,cross,triangle,"0.28536486694739915,0.3449661378960809,0.6441272460635925","-0.15913672951032076,0.48350679120805196,0.18230705521727808","1.0,0.04460337025072447,-1.0","0.15741439024530024,0.4651753747362595,-0.7441898531558468",256,206,63,152,"0.28536486694739915,0.3449661378960809,0.6441272460635925",256,"-0.0889322071979689,0.49470485377678974,-0.17530036558846096",182,305,3.776582100000269
Pri_ET_Study1_4,M,0/0/1900,2022-07-07_11h54.14.926,56,test,NoPrioritise,0,circle,triangle,square,cross,"1.0,-0.28849207683894174,-0.11276294357485506","1.0,-0.007413941176475647,0.4855113905503705","1.0,0.14454808295369936,-1.0","0.49743207809976986,0.2728177294164349,0.672458831583457",358,310,77,270,"1.0,-0.28849207683894174,-0.11276294357485506",358,"-0.11850987372908683,0.4637398184337027,0.34737226103556385",219,115,4.774646300000313
Pri_ET_Study1_4,M,0/0/1900,2022-07-07_11h54.14.926,57,test,Prioritise3,1,triangle,cross,circle,square,"0.1774490411200258,0.4614263698132157,-0.8044096137074778","1.0,0.06672643376273091,-1.0","0.04661056885000425,0.4151827959781793,0.5366388806382338","1.0,-0.291416597096681,-0.18651092035548889",150,66,238,3,"1.0,0.06672643376273091,-1.0",66,"1.0,-0.12765325079304635,-0.8480385611780058",40,49,4.245590800000173
Pri_ET_Study1_4,M,0/0/1900,2022-07-07_11h54.14.926,58,test,Prioritise1,0,cross,triangle,circle,square,"0.1673887875274096,0.46333008938060627,-0.7729226224565875","-0.10032491436032498,0.45768874039972984,0.3817396096664756","1.0,-0.24030349193845646,-0.4804258498410512","1.0,-0.16655302622891022,0.25673909055504174",151,222,22,331,"0.1673887875274096,0.46333008938060627,-0.7729226224565875",151,"0.1184165720364383,0.4719787961363635,-0.6454646836219573",156,279,3.413191999999981
Pri_ET_Study1_4,M,0/0/1900,2022-07-07_11h54.14.926,59,test,Prioritise2,3,triangle,circle,square,cross,"1.0,-0.16655302622891022,0.25673909055504174","-0.0889322071979689,0.49470485377678974,-0.17530036558846096","1.0,-0.266139671692747,-0.3844942650329082","0.013319861281873457,0.4245182348375207,0.5115287599103473",331,182,16,235,"0.013319861281873457,0.4245182348375207,0.5115287599103473",235,"0.6407010103455535,0.32862970770224886,-1.0",109,130,5.444853500000136
Pri_ET_Study1_4,M,0/0/1900,2022-07-07_11h54.14.926,60,test,Prioritise3,1,square,cross,circle,triangle,"1.0,-0.07783297952557244,0.3960373748090056","0.4981526525436166,0.3791643150394166,-1.0","1.0,-0.176090722701999,-0.6762956704638035","-0.12538192785381974,0.49466166942996614,-0.0651744334368548",319,121,33,189,"0.4981526525436166,0.3791643150394166,-1.0",121,"0.3262451978832188,0.42843842117143094,-1.0",136,239,4.812603299999864
Pri_ET_Study1_4,M,0/0/1900,2022-07-07_11h54.14.926,61,test,Prioritise1,2,triangle,circle,cross,square,"-0.017538974095646753,0.43320838581829424,0.48452289736445553","1.0,-0.20752138035248524,-0.5823144238115788","0.9026141269879491,0.09282770385166228,0.5869975937203944","0.7954699681646173,0.26233143705175754,-1.0",232,28,297,96,"0.9026141269879491,0.09282770385166228,0.5869975937203944",297,"1.0,-0.09100024043058197,-1.0",45,27,3.438056800000595
Pri_ET_Study1_4,M,0/0/1900,2022-07-07_11h54.14.926,62,test,Prioritise2,2,square,cross,circle,triangle,"0.7578023835242338,0.165070026077772,0.63954193062201","1.0,-0.2133971103908915,-0.5647212078646006","0.6885060196604067,0.3095143481419429,-1.0","-0.15601024525342333,0.4900377710624384,0.08414494382818494",287,27,105,199,"0.6885060196604067,0.3095143481419429,-1.0",105,"-0.02724900693809007,0.43596400275120595,0.47511170232003863",231,323,4.228676299999279
Pri_ET_Study1_4,M,0/0/1900,2022-07-07_11h54.14.926,63,test,Prioritise3,3,triangle,circle,cross,square,"1.0,-0.13815640460244194,0.305409278040333","0.4630300053623657,0.39022810787803497,-1.0","1.0,0.10281785561567158,-1.0","0.4204673865307198,0.3003640950728248,0.6680936776579738",327,124,71,265,"0.4204673865307198,0.3003640950728248,0.6680936776579738",265,"0.4204673865307198,0.3003640950728248,0.6680936776579738",265,131,3.437574499999755
Pri_ET_Study1_4,M,0/0/1900,2022-07-07_11h54.14.926,64,test,Prioritise1,2,circle,square,cross,triangle,"-0.11109230792064029,0.494998675286374,-0.11182488810932678","1.0,-0.25349859092244853,0.058576446168723484","1.0,0.10281785561567158,-1.0","0.3937919637711427,0.41052389502637143,-1.0",186,346,71,130,"1.0,0.10281785561567158,-1.0",71,"-0.11109230792064029,0.494998675286374,-0.11182488810932678",186,135,6.221355499999845
Pri_ET_Study1_4,M,0/0/1900,2022-07-07_11h54.14.926,65,test,Prioritise1,1,triangle,square,cross,circle,"0.12802681261339854,0.47036395437091305,-0.6683938146358337","0.8885895249151152,0.10029123080933622,0.593298310174416","-0.12384754992127334,0.4656289401720195,0.3355818842165046","1.0,0.14454808295369936,-1.0",155,296,218,77,"0.8885895249151152,0.10029123080933622,0.593298310174416",296,"0.14752787305018233,0.4669625621869047,-0.7174796825499677",153,305,4.019696499999554
Pri_ET_Study1_4,M,0/0/1900,2022-07-07_11h54.14.926,66,test,Prioritise4,2,cross,circle,square,triangle,"1.0,-0.2853220527670477,-0.0836186653125478","0.10691635848548953,0.39815526341168916,0.5740986907036785","0.14752787305018233,0.4669625621869047,-0.7174796825499677","1.0,0.0885108071490186,-1.0",356,243,153,69,"0.14752787305018233,0.4669625621869047,-0.7174796825499677",153,"1.0,-0.24030349193845646,-0.4804258498410512",22,166,3.5260889999999563
Pri_ET_Study1_4,M,0/0/1900,2022-07-07_11h54.14.926,67,test,Prioritise4,1,square,triangle,cross,circle,"1.0,-0.15960027999342463,0.2690977661520819","1.0,-0.24513616553833184,-0.4641238358039159","0.8189948021797893,0.2510686603392729,-1.0","-0.12966480223349675,0.49444262706220066,-0.04980752507879116",330,21,94,190,"1.0,-0.24513616553833184,-0.4641238358039159",21,"-0.15857178695416452,0.48845422840718666,0.1127707600476957",201,223,5.780314999999973
Pri_ET_Study1_4,M,0/0/1900,2022-07-07_11h54.14.926,68,test,Prioritise1,3,circle,cross,triangle,square,"0.7481042841002781,0.28401253410301863,-1.0","1.0,-0.12042756170577695,-0.8836340589512358","0.011345098196205106,0.4870029319956142,-0.41073039696963887","1.0,-0.2853220527670477,-0.0836186653125478",100,41,168,356,"1.0,-0.2853220527670477,-0.0836186653125478",356,"-0.10043403746491275,0.49495767021285575,-0.14337977127983403",184,160,5.994797500000459
Pri_ET_Study1_4,M,0/0/1900,2022-07-07_11h54.14.926,69,test,Prioritise4,0,triangle,cross,circle,square,"0.1673887875274096,0.46333008938060627,-0.7729226224565875","1.0,0.029697581538389972,-1.0","0.4204673865307198,0.3003640950728248,0.6680936776579738","-0.13746749759655974,0.49384364036211803,-0.01935357496354817",151,61,265,192,"0.1673887875274096,0.46333008938060627,-0.7729226224565875",151,"0.7004475934634664,0.30455679594870433,-1.0",104,199,4.1892477999999755
Pri_ET_Study1_4,M,0/0/1900,2022-07-07_11h54.14.926,70,test,Prioritise1,1,triangle,square,circle,cross,"1.0,-0.10844910144201803,0.3519141850209708","-0.04985376064386149,0.4926777683571715,-0.2733707743273047","0.7362113369355152,0.2892555466706437,-1.0","-0.12881863109484093,0.46745492896353924,0.32362925960524147",323,176,101,217,"-0.04985376064386149,0.4926777683571715,-0.2733707743273047",176,"-0.10587186235375057,0.4950046804635242,-0.12755688133261178",185,323,3.192337999999836
Pri_ET_Study1_4,M,0/0/1900,2022-07-07_11h54.14.926,71,test,Prioritise4,3,circle,square,cross,triangle,"0.8771865507724368,0.22170185938115816,-1.0","-0.1415152911985038,0.4725588943334964,0.2868282896334675","0.4819850074232215,0.2784837623913883,0.6721002952002628","1.0,-0.2696580629443429,-0.3688697412252795",89,214,269,15,"1.0,-0.2696580629443429,-0.3688697412252795",15,"1.0,-0.2905255226561695,-0.14211314919909668",0,167,4.302899199999956
Pri_ET_Study1_4,M,0/0/1900,2022-07-07_11h54.14.926,72,test,Prioritise1,0,circle,cross,square,triangle,"0.911575527904773,0.20327130372654878,-1.0","1.0,-0.15960027999342463,0.2690977661520819","0.19781922438295352,0.4574422518266765,-0.8818361039644314","-0.15691856372514257,0.4811251279442219,0.20925454252068332",86,330,148,208,"0.911575527904773,0.20327130372654878,-1.0",86,"1.0,0.07402842417913646,-1.0",67,7,3.0136161000000357
Pri_ET_Study1_4,M,0/0/1900,2022-07-07_11h54.14.926,73,test,Prioritise3,1,cross,circle,square,triangle,"1.0,-0.07783297952557244,0.3960373748090056","1.0,0.12391818455152381,-1.0","1.0,-0.28715474606071,-0.26149890951485844","-0.02724900693809007,0.43596400275120595,0.47511170232003863",319,74,8,231,"1.0,0.12391818455152381,-1.0",74,"1.0,-0.00039510366743955583,-1.0",57,155,2.390730699999949
Pri_ET_Study1_4,M,0/0/1900,2022-07-07_11h54.14.926,74,test,NoPrioritise,1,square,circle,triangle,cross,"1.0,-0.007959551777363516,-1.0","0.09948789533259128,0.47503830359136323,-0.601955130836429","0.6168077568629242,0.33775906377670717,-1.0","1.0,-0.266139671692747,-0.3844942650329082",56,158,111,16,"0.09948789533259128,0.47503830359136323,-0.601955130836429",158,"0.21850949126575658,0.4532202130288874,-0.9933869065076532",146,238,2.5950652000001355
Pri_ET_Study1_4,M,0/0/1900,2022-07-07_11h54.14.926,75,test,Prioritise3,0,circle,triangle,cross,square,"0.7599790593392,0.278698430329378,-1.0","0.9439739668489959,0.07017173146500566,0.5667550331301558","0.1673887875274096,0.46333008938060627,-0.7729226224565875","1.0,-0.2541916545294901,-0.43193236346031305",99,300,151,19,"0.7599790593392,0.278698430329378,-1.0",99,"0.7481042841002781,0.28401253410301863,-1.0",100,346,3.078385600000729
Pri_ET_Study1_4,M,0/0/1900,2022-07-07_11h54.14.926,76,test,NoPrioritise,1,cross,square,circle,triangle,"1.0,-0.07783297952557244,0.3960373748090056","-0.007535811164553707,0.4303825516742039,0.4937312314227156","1.0,0.007155954649565421,-1.0","0.31518019558100097,0.43119815975599396,-1.0",319,233,58,137,"-0.007535811164553707,0.4303825516742039,0.4937312314227156",233,"1.0,0.12391818455152381,-1.0",74,214,2.641392900000028
Pri_ET_Study1_4,M,0/0/1900,2022-07-07_11h54.14.926,77,test,NoPrioritise,1,triangle,square,cross,circle,"1.0,-0.18262560807777894,-0.6564771422547051","0.6210691465439071,0.22472865664823272,0.6660842894513506","0.6885060196604067,0.3095143481419429,-1.0","0.1184165720364383,0.4719787961363635,-0.6454646836219573",32,278,105,156,"0.6210691465439071,0.22472865664823272,0.6660842894513506",278,"0.8314067698500829,0.129644828397681,0.6162087510840306",292,156,2.0574992000001657
Pri_ET_Study1_4,M,0/0/1900,2022-07-07_11h54.14.926,78,test,Prioritise2,0,cross,square,circle,triangle,"1.0,-0.0855518419522695,0.38524161028667625","0.43579397082986615,0.29501209376045523,0.6694809165992386","0.09017416231209929,0.4764835565228893,-0.581140049938324","1.0,-0.09100024043058197,-1.0",320,266,159,45,"1.0,-0.0855518419522695,0.38524161028667625",320,"0.7278119810668549,0.17880451220180715,0.6471802765379799",285,248,3.0718127000000095
Pri_ET_Study1_4,M,0/0/1900,2022-07-07_11h54.14.926,79,test,NoPrioritise,2,square,circle,cross,triangle,"0.22896995211020998,0.45101907426419996,-1.0","0.32969209843730707,0.3308126345090221,0.6543985772501693","-0.1481252589400609,0.4756545429797898,0.26153874370652797","1.0,0.10990102188412854,-1.0",145,259,212,72,"-0.1481252589400609,0.4756545429797898,0.26153874370652797",212,"0.5691306813430501,0.3551652128948415,-1.0",115,120,3.525358299999425
Pri_ET_Study1_4,M,0/0/1900,2022-07-07_11h54.14.926,80,test,NoPrioritise,2,circle,triangle,cross,square,"-0.1582066093163167,0.48234509352938293,0.19584550247902222","1.0,0.0520116041796701,-1.0","1.0,-0.28849207683894174,-0.11276294357485506","0.3373683384989987,0.425614728337375,-1.0",207,64,358,135,"1.0,-0.28849207683894174,-0.11276294357485506",358,"0.7954699681646173,0.26233143705175754,-1.0",96,60,2.8057097000000795
Pri_ET_Study1_4,M,0/0/1900,2022-07-07_11h54.14.926,81,test,Prioritise1,1,circle,square,triangle,cross,"1.0,-0.20752138035248524,-0.5823144238115788","1.0,-0.17339639938985352,0.2442586263282529","0.8656291340184048,0.2277117481201254,-1.0","0.3148218664135791,0.3356097028178475,0.6512264970146455",28,332,90,258,"1.0,-0.17339639938985352,0.2442586263282529",332,"0.7362113369355152,0.2892555466706437,-1.0",101,23,2.545107700000699
Pri_ET_Study1_4,M,0/0/1900,2022-07-07_11h54.14.926,82,test,Prioritise2,2,triangle,square,cross,circle,"-0.08288077159008311,0.49449913405181634,-0.1914000323192474","1.0,-0.2812391217555803,-0.30713162009795525","1.0,-0.007413941176475647,0.4855113905503705","0.4282253351913974,0.40067838587068505,-1.0",181,11,310,127,"1.0,-0.007413941176475647,0.4855113905503705",310,"0.984183681480933,0.0471694796759472,0.544551712303033",303,343,3.572109200000341
Pri_ET_Study1_4,M,0/0/1900,2022-07-07_11h54.14.926,83,test,Prioritise4,3,square,cross,circle,triangle,"0.4630300053623657,0.39022810787803497,-1.0","1.0,-0.007959551777363516,-1.0","0.4204673865307198,0.3003640950728248,0.6680936776579738","1.0,-0.15254529173699993,0.2813312795320311",124,56,265,329,"1.0,-0.15254529173699993,0.2813312795320311",329,"1.0,-0.18672585607811187,0.21894575397790916",334,326,2.22489349999978
Pri_ET_Study1_4,M,0/0/1900,2022-07-07_11h54.14.926,84,test,Prioritise4,3,circle,cross,square,triangle,"1.0,-0.15960027999342463,0.2690977661520819","0.25011230249462657,0.4464347244570299,-1.0","1.0,-0.06852917744512788,-1.0","-0.15325530146069954,0.47850880592239364,0.23567289266690317",330,143,48,210,"-0.15325530146069954,0.47850880592239364,0.23567289266690317",210,"-0.02724900693809007,0.43596400275120595,0.47511170232003863",231,39,2.119904099999985
Pri_ET_Study1_4,M,0/0/1900,2022-07-07_11h54.14.926,85,test,Prioritise1,0,cross,circle,square,triangle,"0.5217173616076898,0.3714436344565344,-1.0","-0.03665861455697994,0.4386499069954206,0.4655003413302212","0.9898363577373541,0.15802139914365565,-1.0","1.0,-0.04666697700988032,0.4375655321668761",119,230,79,315,"0.5217173616076898,0.3714436344565344,-1.0",119,"0.47470490157818523,0.38660875671905104,-1.0",123,308,7.868007600000055
Pri_ET_Study1_4,M,0/0/1900,2022-07-07_11h54.14.926,86,test,Prioritise2,1,triangle,cross,square,circle,"0.9229356114863154,0.19699631777014193,-1.0","1.0,-0.283482916447115,-0.29186272671519153","0.6823545184579658,0.19890605819631269,0.6567852503614975","0.40522526965537775,0.4073086888830977,-1.0",85,10,282,129,"1.0,-0.283482916447115,-0.29186272671519153",10,"1.0,-0.29111130123666484,-0.15686324257888173",1,327,6.7114383000007365
Pri_ET_Study1_4,M,0/0/1900,2022-07-07_11h54.14.926,87,test,Prioritise2,0,cross,square,circle,triangle,"0.7362113369355152,0.2892555466706437,-1.0","1.0,-0.09842467873037941,-1.0","0.2607905457923898,0.44405077031286466,-1.0","0.4051864188365102,0.30563705046778256,0.6664498358678796",101,44,142,264,"0.7362113369355152,0.2892555466706437,-1.0",101,"0.0809641014742315,0.4778728517952051,-0.560834903418019",160,49,2.910700800000086
Pri_ET_Study1_4,M,0/0/1900,2022-07-07_11h54.14.926,88,test,Prioritise4,0,cross,square,triangle,circle,"-0.1552691192795369,0.47984650043174004,0.22253130766167373","0.8656291340184048,0.2277117481201254,-1.0","0.3262451978832188,0.42843842117143094,-1.0","1.0,-0.05449202187079283,0.427438243059558",209,90,136,316,"-0.1552691192795369,0.47984650043174004,0.22253130766167373",209,"-0.11280811015512238,0.4617870748317987,0.35899735609320693",220,226,3.5255003000002034
Pri_ET_Study1_4,M,0/0/1900,2022-07-07_11h54.14.926,89,test,NoPrioritise,1,cross,square,triangle,circle,"0.5453823652594301,0.36344457638027117,-1.0","1.0,0.007155954649565421,-1.0","-0.1442047673080774,0.4930289775224417,0.010718955352132964","0.4051864188365102,0.30563705046778256,0.6664498358678796",117,58,194,264,"1.0,0.007155954649565421,-1.0",58,"1.0,-0.023115205136178596,-1.0",54,256,3.3880895000002056
Pri_ET_Study1_4,M,0/0/1900,2022-07-07_11h54.14.926,90,test,Prioritise3,0,cross,circle,square,triangle,"1.0,-0.289651960671372,-0.12741280502186536","0.019624625934283157,0.48605247051678724,-0.428609032695351","0.4204673865307198,0.3003640950728248,0.6680936776579738","1.0,-0.13481497066722903,-0.8172789642511413",359,167,265,39,"1.0,-0.289651960671372,-0.12741280502186536",359,"1.0,-0.26238457869240295,-0.4002073564444957",17,250,4.1061636000004
Pri_ET_Study1_4,M,0/0/1900,2022-07-07_11h54.14.926,91,test,Prioritise1,2,circle,cross,square,triangle,"0.6646065852612066,0.3192149609683923,-1.0","-0.15425303278284086,0.49074605836511664,0.06966808771232391","0.43579397082986615,0.29501209376045523,0.6694809165992386","1.0,-0.1558548551326704,-0.7405909184559469",107,198,266,36,"0.43579397082986615,0.29501209376045523,0.6694809165992386",266,"0.7004475934634664,0.30455679594870433,-1.0",104,162,3.256719900000462
Pri_ET_Study1_4,M,0/0/1900,2022-07-07_11h54.14.926,92,test,Prioritise4,3,cross,triangle,square,circle,"1.0,0.07402842417913646,-1.0","-0.137653653553384,0.47091943313012696,0.2992494234533911","1.0,-0.12344048141961106,0.3289459564990056","0.4051864188365102,0.30563705046778256,0.6664498358678796",67,215,325,264,"0.4051864188365102,0.30563705046778256,0.6664498358678796",264,"0.4051864188365102,0.30563705046778256,0.6664498358678796",264,158,2.5301283999997395
Pri_ET_Study1_4,M,0/0/1900,2022-07-07_11h54.14.926,93,test,Prioritise1,0,cross,circle,square,triangle,"0.1184165720364383,0.4719787961363635,-0.6454646836219573","0.5691306813430501,0.3551652128948415,-1.0","1.0,-0.18262560807777894,-0.6564771422547051","0.6670955436242052,0.20546863097446266,0.6594879335101997",156,115,32,281,"0.1184165720364383,0.4719787961363635,-0.6454646836219573",156,"0.011345098196205106,0.4870029319956142,-0.41073039696963887",168,293,2.927511699999741
Pri_ET_Study1_4,M,0/0/1900,2022-07-07_11h54.14.926,94,test,Prioritise4,1,cross,square,circle,triangle,"0.07004997715874661,0.40859431628906884,0.5522929170622126","1.0,-0.13481497066722903,-0.8172789642511413","0.8314067698500829,0.129644828397681,0.6162087510840306","0.29323185337982705,0.4365272844863326,-1.0",240,39,292,139,"1.0,-0.13481497066722903,-0.8172789642511413",39,"-0.0864279937772866,0.4533299305616785,0.40378459741649797",224,203,2.8801907000006395
Pri_ET_Study1_4,M,0/0/1900,2022-07-07_11h54.14.926,95,test,Prioritise3,2,triangle,square,circle,cross,"0.6885060196604067,0.3095143481419429,-1.0","1.0,-0.015534070910116049,-1.0","-0.15218698220497417,0.491399065672369,0.0550849709310266","1.0,0.016090771115826907,0.5120159997035829",105,55,197,307,"-0.15218698220497417,0.491399065672369,0.0550849709310266",197,"-0.14715582087117385,0.4925402828135286,0.025608434090147236",195,196,3.2574670000003607
Pri_ET_Study1_4,M,0/0/1900,2022-07-07_11h54.14.926,96,test,Prioritise3,0,circle,cross,square,triangle,"1.0,-0.24513616553833184,-0.4641238358039159","0.8744524420551003,0.1077067653533772,0.5993718879433354","0.3937919637711427,0.41052389502637143,-1.0","-0.137653653553384,0.47091943313012696,0.2992494234533911",21,295,130,215,"1.0,-0.24513616553833184,-0.4641238358039159",21,"0.4204673865307198,0.3003640950728248,0.6680936776579738",265,194,3.5270199999995384
Pri_ET_Study1_4,M,0/0/1900,2022-07-07_11h54.14.926,97,test,Prioritise2,3,triangle,square,cross,circle,"0.7004475934634664,0.30455679594870433,-1.0","1.0,0.031678509722878445,0.528693730626498","1.0,-0.21911833444213913,-0.5474132739956148","0.21850949126575658,0.4532202130288874,-0.9933869065076532",104,305,26,146,"0.21850949126575658,0.4532202130288874,-0.9933869065076532",146,"1.0,-0.0932311933171065,0.374286934875081",321,224,4.140667399999984
Pri_ET_Study1_4,M,0/0/1900,2022-07-07_11h54.14.926,98,test,Prioritise3,0,triangle,cross,circle,square,"-0.15691856372514257,0.4811251279442219,0.20925454252068332","0.4981526525436166,0.3791643150394166,-1.0","1.0,-0.07783297952557244,0.3960373748090056","1.0,-0.289651960671372,-0.12741280502186536",208,121,319,359,"-0.15691856372514257,0.4811251279442219,0.20925454252068332",208,"-0.0864279937772866,0.4533299305616785,0.40378459741649797",224,100,3.678105400000277
Pri_ET_Study1_4,M,0/0/1900,2022-07-07_11h54.14.926,99,test,Prioritise1,2,square,triangle,circle,cross,"0.31518019558100097,0.43119815975599396,-1.0","-0.137653653553384,0.47091943313012696,0.2992494234533911","1.0,-0.23416809090988489,0.11348302116348141","0.697563521415238,0.19227379976898162,0.6538323072937366",137,215,342,283,"1.0,-0.23416809090988489,0.11348302116348141",342,"1.0,-0.27293323902243416,-0.35332683897484074",14,185,3.478857799999787
Pri_ET_Study1_4,M,0/0/1900,2022-07-07_11h54.14.926,100,test,Prioritise4,2,square,cross,triangle,circle,"1.0,-0.03828278687151976,-1.0","-0.14097292288545527,0.4934633616179327,-0.004268922352566595","0.6364477477613335,0.21838082541010184,0.6641383826852352","1.0,-0.21761393967782516,0.1537648375256555",52,193,279,339,"0.6364477477613335,0.21838082541010184,0.6641383826852352",279,"0.8168605703912253,0.13684827598857496,0.6213530935889016",291,353,8.34259099999963
Pri_ET_Study1_4,M,0/0/1900,2022-07-07_11h54.14.926,101,test,Prioritise2,0,square,cross,triangle,circle,"0.5902286499321849,0.2372037618456999,0.6692134526599127","1.0,0.0885108071490186,-1.0","-0.045760705841983884,0.4412666063320212,0.45569155140365925","0.22896995211020998,0.45101907426419996,-1.0",276,69,229,145,"0.5902286499321849,0.2372037618456999,0.6692134526599127",276,"1.0,-0.06852917744512788,-1.0",48,350,1.7190081999997346
Pri_ET_Study1_4,M,0/0/1900,2022-07-07_11h54.14.926,102,test,NoPrioritise,1,circle,cross,triangle,square,"0.18599750731146814,0.3752337008299145,0.6114718629309206","0.8886984490493344,0.21562474761751438,-1.0","1.0,-0.007413941176475647,0.4855113905503705","0.28235212283095645,0.4390974279014652,-1.0",249,88,310,140,"0.8886984490493344,0.21562474761751438,-1.0",88,"0.8022226392771252,0.14399413187212562,0.6262603189685363",290,193,1.5724101999994673
Pri_ET_Study1_4,M,0/0/1900,2022-07-07_11h54.14.926,103,test,NoPrioritise,2,square,triangle,cross,circle,"0.29323185337982705,0.4365272844863326,-1.0","1.0,-0.023115205136178596,-1.0","0.3148218664135791,0.3356097028178475,0.6512264970146455","1.0,-0.0855518419522695,0.38524161028667625",139,54,258,320,"0.3148218664135791,0.3356097028178475,0.6512264970146455",258,"1.0,-0.14892208927791584,-0.7642951287839744",37,189,1.4277834000004077
Pri_ET_Study1_4,M,0/0/1900,2022-07-07_11h54.14.926,104,test,NoPrioritise,3,square,triangle,circle,cross,"1.0,0.022205290041545256,-1.0","-0.12085421394465079,0.49482727509491764,-0.08063336981743141","1.0,-0.28704790815198966,-0.09816451385922986","0.43579397082986615,0.29501209376045523,0.6694809165992386",60,188,357,266,"0.43579397082986615,0.29501209376045523,0.6694809165992386",266,"0.7127176267031001,0.18557291042394586,0.6506302425082333",284,14,1.3874445000001288
Pri_ET_Study1_4,M,0/0/1900,2022-07-07_11h54.14.926,105,test,NoPrioritise,1,cross,square,circle,triangle,"1.0,-0.23930972970484676,0.09987881270213972","-0.12384754992127334,0.4656289401720195,0.3355818842165046","-0.03545149328753128,0.4915787209123279,-0.3069086161051545","0.5217173616076898,0.3714436344565344,-1.0",343,218,174,119,"-0.12384754992127334,0.4656289401720195,0.3355818842165046",218,"-0.12384754992127334,0.4656289401720195,0.3355818842165046",218,154,2.6757307999996556
Pri_ET_Study1_4,M,0/0/1900,2022-07-07_11h54.14.926,106,test,Prioritise2,3,circle,square,triangle,cross,"0.18759316868675757,0.45946387343509576,-0.8398972692549822","1.0,-0.2583995670372059,-0.4160170008955538","0.8771865507724368,0.22170185938115816,-1.0","-0.0864279937772866,0.4533299305616785,0.40378459741649797",149,18,89,224,"-0.0864279937772866,0.4533299305616785,0.40378459741649797",224,"1.0,-0.20149881210311282,-0.6002331830476271",29,69,2.5482638000003135
Pri_ET_Study1_4,M,0/0/1900,2022-07-07_11h54.14.926,107,test,NoPrioritise,0,cross,triangle,square,circle,"1.0,-0.2583995670372059,-0.4160170008955538","0.6765582342033039,0.31440040312493167,-1.0","-0.1598212484830719,0.4866460428277808,0.1409432704458322","1.0,-0.18672585607811187,0.21894575397790916",18,106,203,334,"1.0,-0.2583995670372059,-0.4160170008955538",18,"1.0,-0.2352776592018201,-0.4968859262116322",23,274,3.4402256000003035
Pri_ET_Study1_4,M,0/0/1900,2022-07-07_11h54.14.926,108,test,NoPrioritise,0,triangle,cross,square,circle,"0.3937919637711427,0.41052389502637143,-1.0","1.0,-0.2853220527670477,-0.0836186653125478","-0.07115460775268467,0.4487065849390661,0.42510855757080535","0.7726890832158932,0.15810653737494773,0.6353563968956581",130,356,226,288,"0.3937919637711427,0.41052389502637143,-1.0",130,"0.024156992038590452,0.42147876676365525,0.5201127943356356",236,1,1.7266443999997136
Pri_ET_Study1_4,M,0/0/1900,2022-07-07_11h54.14.926,109,test,Prioritise1,1,triangle,square,cross,circle,"1.0,-0.2541916545294901,-0.43193236346031305","0.8885895249151152,0.10029123080933622,0.593298310174416","0.002753009035763032,0.42748599986642954,0.5027340537090634","-0.05680994196765965,0.4931478034098584,-0.2567707460520542",19,296,234,177,"0.8885895249151152,0.10029123080933622,0.593298310174416",296,"0.5747774279545166,0.24332959852807035,0.670395358395977",275,37,2.8927215000003343
Pri_ET_Study1_4,M,0/0/1900,2022-07-07_11h54.14.926,110,test,Prioritise4,1,circle,cross,square,triangle,"1.0,-0.1694459751095364,-0.6968170409133772","0.08211922552252782,0.40518924666980105,0.5597871012004456","0.6646065852612066,0.3192149609683923,-1.0","0.6670955436242052,0.20546863097446266,0.6594879335101997",34,241,107,281,"0.08211922552252782,0.40518924666980105,0.5597871012004456",241,"0.019624625934283157,0.48605247051678724,-0.428609032695351",167,296,2.1949098000004597
Pri_ET_Study1_4,M,0/0/1900,2022-07-07_11h54.14.926,111,test,Prioritise4,3,triangle,cross,square,circle,"0.3000437839717358,0.34032750492681907,0.6478023910819077","1.0,-0.29111130123666484,-0.15686324257888173","0.6765582342033039,0.31440040312493167,-1.0","0.03656203285471027,0.4839890544285097,-0.46499532916065",257,1,106,165,"0.03656203285471027,0.4839890544285097,-0.46499532916065",165,"0.002753009035763032,0.42748599986642954,0.5027340537090634",234,193,1.6885331999992559
Pri_ET_Study1_4,M,0/0/1900,2022-07-07_11h54.14.926,112,test,Prioritise1,2,triangle,cross,square,circle,"1.0,-0.060989074760531836,-1.0","0.8189948021797893,0.2510686603392729,-1.0","1.0,-0.15254529173699993,0.2813312795320311","0.13253781604398185,0.3908200528647623,0.5874938236427092",49,94,329,245,"1.0,-0.15254529173699993,0.2813312795320311",329,"1.0,-0.015534070910116049,-1.0",55,23,1.5413456999995105
Pri_ET_Study1_4,M,0/0/1900,2022-07-07_11h54.14.926,113,test,Prioritise1,3,circle,square,triangle,cross,"-0.02724900693809007,0.43596400275120595,0.47511170232003863","1.0,-0.14190666083918357,-0.7896703829265752","0.31518019558100097,0.43119815975599396,-1.0","0.8458569493622168,0.12238552790175761,0.6108291411981881",231,38,137,293,"0.8458569493622168,0.12238552790175761,0.6108291411981881",293,"-0.017538974095646753,0.43320838581829424,0.48452289736445553",232,162,3.6456678000004104
Pri_ET_Study1_4,M,0/0/1900,2022-07-07_11h54.14.926,114,test,Prioritise4,2,cross,circle,square,triangle,"0.7127176267031001,0.18557291042394586,0.6506302425082333","0.07004997715874661,0.40859431628906884,0.5522929170622126","1.0,0.07402842417913646,-1.0","-0.1442047673080774,0.4930289775224417,0.010718955352132964",284,240,67,194,"1.0,0.07402842417913646,-1.0",67,"0.058211064666331636,0.41192535001918484,0.5445760826660213",239,122,2.5767296000003626
Pri_ET_Study1_4,M,0/0/1900,2022-07-07_11h54.14.926,115,test,Prioritise3,2,cross,circle,square,triangle,"1.0,-0.09842467873037941,-1.0","0.1774490411200258,0.4614263698132157,-0.8044096137074778","0.4665589352747248,0.2840716923699367,0.6714844115718321","1.0,-0.13815640460244194,0.305409278040333",44,150,268,327,"0.4665589352747248,0.2840716923699367,0.6714844115718321",268,"0.4204673865307198,0.3003640950728248,0.6680936776579738",265,120,2.19224739999936
Pri_ET_Study1_4,M,0/0/1900,2022-07-07_11h54.14.926,116,test,Prioritise2,3,triangle,circle,cross,square,"-0.15913672951032076,0.48350679120805196,0.18230705521727808","1.0,-0.2692625012388049,0.0024658652101630096","0.2277843781848521,0.3627318956570289,0.6269388339435948","0.3485477954945324,0.4227267056127266,-1.0",206,350,252,134,"0.3485477954945324,0.4227267056127266,-1.0",134,"-0.14500574250124976,0.47413711311303364,0.2742570559677715",213,349,2.5051869999997507
Pri_ET_Study1_4,M,0/0/1900,2022-07-07_11h54.14.926,117,test,Prioritise3,2,cross,square,triangle,circle,"1.0,0.01469043779870538,-1.0","0.10890282843090082,0.4735368131811257,-0.6233623294930688","1.0,-0.2787294505909397,-0.3224626175099854","0.7481042841002781,0.28401253410301863,-1.0",59,157,12,100,"1.0,-0.2787294505909397,-0.3224626175099854",12,"1.0,-0.2759589912597996,-0.3378595329546661",13,313,2.409223700000439
Pri_ET_Study1_4,M,0/0/1900,2022-07-07_11h54.14.926,118,test,Prioritise2,0,square,triangle,circle,cross,"1.0,-0.27259515439613147,-0.011730747350127468","-0.04985376064386149,0.4926777683571715,-0.2733707743273047","0.6526534052453359,0.32395804637990677,-1.0","0.8602068900008202,0.11507220116757,0.6052161878467197",351,176,108,294,"1.0,-0.27259515439613147,-0.011730747350127468",351,"1.0,-0.2905255226561695,-0.14211314919909668",0,346,5.909433499999977
Pri_ET_Study1_4,M,0/0/1900,2022-07-07_11h54.14.926,119,test,Prioritise2,2,triangle,cross,circle,square,"-0.04273264564935253,0.4921547641531523,-0.29008164886068233","0.4819850074232215,0.2784837623913883,0.6721002952002628","1.0,0.1513135807267587,-1.0","1.0,-0.223312447401106,0.14042906010430367",175,269,78,340,"1.0,0.1513135807267587,-1.0",78,"0.013319861281873457,0.4245182348375207,0.5115287599103473",235,239,5.593192899999849
Pri_ET_Study1_4,M,0/0/1900,2022-07-07_11h54.14.926,120,test,NoPrioritise,0,circle,triangle,square,cross,"1.0,-0.007959551777363516,-1.0","0.6407010103455535,0.32862970770224886,-1.0","0.002753009035763032,0.42748599986642954,0.5027340537090634","1.0,-0.18672585607811187,0.21894575397790916",56,109,234,334,"1.0,-0.007959551777363516,-1.0",56,"1.0,-0.19952917352700617,0.19318579588388318",336,18,3.4381807999998273
Pri_ET_Study1_4,M,0/0/1900,2022-07-07_11h54.14.926,121,test,Prioritise3,2,circle,cross,triangle,square,"1.0,-0.26238457869240295,-0.4002073564444957","-0.12384754992127334,0.4656289401720195,0.3355818842165046","0.5128942075651803,0.26707393527284795,0.6725600501236935","1.0,-0.18672585607811187,0.21894575397790916",17,218,271,334,"0.5128942075651803,0.26707393527284795,0.6725600501236935",271,"0.8458569493622168,0.12238552790175761,0.6108291411981881",293,251,2.605621599999722
Pri_ET_Study1_4,M,0/0/1900,2022-07-07_11h54.14.926,122,test,Prioritise1,3,circle,square,cross,triangle,"1.0,-0.266139671692747,-0.3844942650329082","-0.017538974095646753,0.43320838581829424,0.48452289736445553","0.9229356114863154,0.19699631777014193,-1.0","1.0,-0.15254529173699993,0.2813312795320311",16,232,85,329,"1.0,-0.15254529173699993,0.2813312795320311",329,"0.03525654226328623,0.4183671124064994,0.5284836519992187",237,132,2.3585972000000766
Pri_ET_Study1_4,M,0/0/1900,2022-07-07_11h54.14.926,123,test,NoPrioritise,2,circle,cross,triangle,square,"0.5453823652594301,0.36344457638027117,-1.0","0.21370971933434912,0.36697709911931464,0.6220261074603506","0.8314067698500829,0.129644828397681,0.6162087510840306","1.0,-0.26238457869240295,-0.4002073564444957",117,251,292,17,"0.8314067698500829,0.129644828397681,0.6162087510840306",292,"-0.02724900693809007,0.43596400275120595,0.47511170232003863",231,171,2.6900065999998333
Pri_ET_Study1_4,M,0/0/1900,2022-07-07_11h54.14.926,124,test,NoPrioritise,2,cross,circle,square,triangle,"-0.12966480223349675,0.49444262706220066,-0.04980752507879116","1.0,-0.05449202187079283,0.427438243059558","1.0,-0.1694459751095364,-0.6968170409133772","0.7718332302050808,0.2733134055615505,-1.0",190,316,34,98,"1.0,-0.1694459751095364,-0.6968170409133772",34,"0.02803139784776887,0.4850479085911541,-0.44669070010662637",166,41,2.3211524000007557
Pri_ET_Study1_4,M,0/0/1900,2022-07-07_11h54.14.926,125,test,Prioritise3,1,circle,square,cross,triangle,"-0.1598212484830719,0.4866460428277808,0.1409432704458322","1.0,0.1513135807267587,-1.0","0.15891936573799903,0.3831804895186659,0.5999565135488085","0.3373683384989987,0.425614728337375,-1.0",203,78,247,135,"1.0,0.1513135807267587,-1.0",78,"0.013319861281873457,0.4245182348375207,0.5115287599103473",235,299,2.9134355999995023
Pri_ET_Study1_4,M,0/0/1900,2022-07-07_11h54.14.926,126,test,Prioritise2,0,triangle,circle,square,cross,"1.0,-0.24030349193845646,-0.4804258498410512","0.5810306884554026,0.3509198779468534,-1.0","0.5747774279545166,0.24332959852807035,0.670395358395977","1.0,0.10281785561567158,-1.0",22,114,275,71,"1.0,-0.24030349193845646,-0.4804258498410512",22,"0.09017416231209929,0.4764835565228893,-0.581140049938324",159,349,3.6042939999997543
Pri_ET_Study1_4,M,0/0/1900,2022-07-07_11h54.14.926,127,test,NoPrioritise,0,square,circle,triangle,cross,"0.10890282843090082,0.4735368131811257,-0.6233623294930688","-0.15087465470231598,0.47711162872615454,0.24867635980838454","1.0,-0.289651960671372,-0.12741280502186536","1.0,0.008268781307839035,0.5033766660072689",157,211,359,308,"0.10890282843090082,0.4735368131811257,-0.6233623294930688",157,"1.0,-0.265680167273015,0.01659727634298691",349,63,3.1590071999999054
Pri_ET_Study1_4,M,0/0/1900,2022-07-07_11h54.14.926,128,test,Prioritise1,2,cross,circle,square,triangle,"-0.1599394399400429,0.4856569012506431,0.15485318992015062","1.0,-0.21761393967782516,0.1537648375256555","0.4397882380638529,0.39726260220805054,-1.0","0.9165223056430671,0.08531838961047389,0.5804719469242157",204,339,126,298,"0.4397882380638529,0.39726260220805054,-1.0",126,"0.17237529551869346,0.3792456671279014,0.6058334931269098",248,43,3.8226625000006607
Pri_ET_Study1_4,M,0/0/1900,2022-07-07_11h54.14.926,129,test,NoPrioritise,3,square,triangle,cross,circle,"1.0,-0.053431764767480794,-1.0","0.08211922552252782,0.40518924666980105,0.5597871012004456","1.0,-0.15960027999342463,0.2690977661520819","1.0,-0.283482916447115,-0.29186272671519153",50,241,330,10,"1.0,-0.283482916447115,-0.29186272671519153",10,"1.0,-0.11314379054822865,-0.9277147292103822",42,202,2.6399013000000195
Pri_ET_Study1_4,M,0/0/1900,2022-07-07_11h54.14.926,130,test,Prioritise3,1,triangle,square,cross,circle,"1.0,-0.11314379054822865,-0.9277147292103822","-0.10587186235375057,0.4950046804635242,-0.12755688133261178","0.5593128013847881,0.24938009178326226,0.6713213889936891","1.0,-0.2288330890480459,0.12700076968242469",42,185,274,341,"-0.10587186235375057,0.4950046804635242,-0.12755688133261178",185,"0.2277843781848521,0.3627318956570289,0.6269388339435948",252,177,3.505932400000347
Pri_ET_Study1_4,M,0/0/1900,2022-07-07_11h54.14.926,131,test,Prioritise2,1,triangle,square,circle,cross,"0.6056610145008174,0.2310032177113197,0.6677762187869551","1.0,-0.1308360377071882,0.3172469791017578","0.9566713411825642,0.17778746275501622,-1.0","-0.10587186235375057,0.4950046804635242,-0.12755688133261178",277,326,82,185,"1.0,-0.1308360377071882,0.3172469791017578",326,"1.0,-0.03882752461224859,0.44751763152896373",314,130,2.067533100000219
Pri_ET_Study1_4,M,0/0/1900,2022-07-07_11h54.14.926,132,test,Prioritise1,1,square,cross,triangle,circle,"1.0,-0.27259515439613147,-0.011730747350127468","1.0,-0.12042756170577695,-0.8836340589512358","0.38995744222104256,0.31083082350540914,0.6645497918058341","0.9973143857544444,0.03943765994348003,0.5367265506444097",351,41,263,304,"1.0,-0.12042756170577695,-0.8836340589512358",41,"1.0,-0.2914084206358549,-0.1716625835351976",2,20,2.410942100000284
Pri_ET_Study1_4,M,0/0/1900,2022-07-07_11h54.14.926,133,test,Prioritise3,0,square,triangle,cross,circle,"0.0809641014742315,0.4778728517952051,-0.560834903418019","0.984183681480933,0.0471694796759472,0.544551712303033","0.21370971933434912,0.36697709911931464,0.6220261074603506","1.0,-0.1694459751095364,-0.6968170409133772",160,303,251,34,"0.0809641014742315,0.4778728517952051,-0.560834903418019",160,"-0.1599394399400429,0.4856569012506431,0.15485318992015062",204,353,3.940585500000452
Pri_ET_Study1_4,M,0/0/1900,2022-07-07_11h54.14.926,134,test,NoPrioritise,1,cross,circle,square,triangle,"0.37106831880418345,0.41675617985472035,-1.0","1.0,-0.00039510366743955583,-1.0","1.0,-0.15960027999342463,0.2690977661520819","-0.007535811164553707,0.4303825516742039,0.4937312314227156",132,57,330,233,"1.0,-0.00039510366743955583,-1.0",57,"1.0,-0.23930972970484676,0.09987881270213972",343,329,3.634353100000226
Pri_ET_Study1_4,M,0/0/1900,2022-07-07_11h54.14.926,135,test,Prioritise3,2,cross,circle,triangle,square,"1.0,-0.06852917744512788,-1.0","1.0,-0.15960027999342463,0.2690977661520819","0.7578023835242338,0.165070026077772,0.63954193062201","0.557247182986663,0.35934004439537626,-1.0",48,330,287,116,"0.7578023835242338,0.165070026077772,0.63954193062201",287,"1.0,-0.16269839246793216,-0.7181852224820324",35,334,2.681629100000464
Pri_ET_Study1_4,M,0/0/1900,2022-07-07_11h54.14.926,136,test,Prioritise3,2,square,triangle,circle,cross,"0.4630300053623657,0.39022810787803497,-1.0","1.0,0.12391818455152381,-1.0","1.0,-0.2696580629443429,-0.3688697412252795","-0.08288077159008311,0.49449913405181634,-0.1914000323192474",124,74,15,181,"1.0,-0.2696580629443429,-0.3688697412252795",15,"1.0,-0.28545618498147696,-0.27665271730440133",9,226,2.8920710000002146
Pri_ET_Study1_4,M,0/0/1900,2022-07-07_11h54.14.926,137,test,Prioritise4,1,circle,square,triangle,cross,"0.5810306884554026,0.3509198779468534,-1.0","-0.07115460775268467,0.4487065849390661,0.42510855757080535","0.4819850074232215,0.2784837623913883,0.6721002952002628","1.0,-0.20571451687417974,0.18014638001872707",114,226,269,337,"-0.07115460775268467,0.4487065849390661,0.42510855757080535",226,"0.5283655398475315,0.26125276704655587,0.6724040666408482",272,174,3.3801306999994267
Pri_ET_Study1_4,M,0/0/1900,2022-07-07_11h54.14.926,138,test,Prioritise4,1,circle,square,cross,triangle,"-0.1336957186097738,0.49417000388378884,-0.03453353894846056","0.6168077568629242,0.33775906377670717,-1.0","1.0,-0.10844910144201803,0.3519141850209708","1.0,-0.12042756170577695,-0.8836340589512358",191,111,323,41,"0.6168077568629242,0.33775906377670717,-1.0",111,"1.0,0.04460337025072447,-1.0",63,74,2.760679400000299
Pri_ET_Study1_4,M,0/0/1900,2022-07-07_11h54.14.926,139,test,NoPrioritise,0,triangle,cross,circle,square,"0.11962807502985351,0.3945255124543332,0.5809118383777745","1.0,-0.2288330890480459,0.12700076968242469","0.9165223056430671,0.08531838961047389,0.5804719469242157","-0.05680994196765965,0.4931478034098584,-0.2567707460520542",244,341,298,177,"0.11962807502985351,0.3945255124543332,0.5809118383777745",244,"0.25011230249462657,0.4464347244570299,-1.0",143,44,2.7582399000002624
Pri_ET_Study1_4,M,0/0/1900,2022-07-07_11h54.14.926,140,test,Prioritise3,3,square,circle,triangle,cross,"1.0,-0.2784883645829067,-0.04031082501765193","0.6364477477613335,0.21838082541010184,0.6641383826852352","0.9788490541088481,0.1646703741338249,-1.0","-0.1481252589400609,0.4756545429797898,0.26153874370652797",353,279,80,212,"-0.1481252589400609,0.4756545429797898,0.26153874370652797",212,"-0.14097292288545527,0.4934633616179327,-0.004268922352566595",193,309,4.486592100000053
Pri_ET_Study1_4,M,0/0/1900,2022-07-07_11h54.14.926,141,test,Prioritise1,3,triangle,cross,square,circle,"0.28536486694739915,0.3449661378960809,0.6441272460635925","0.854028730639278,0.2336538600688729,-1.0","0.2715377535601935,0.44160513045338035,-1.0","1.0,-0.24425036060701033,0.08619108045783674",256,91,141,344,"1.0,-0.24425036060701033,0.08619108045783674",344,"0.4665589352747248,0.2840716923699367,0.6714844115718321",268,82,3.0250051000002713
Pri_ET_Study1_4,M,0/0/1900,2022-07-07_11h54.14.926,142,test,Prioritise1,0,square,cross,triangle,circle,"-0.1160886962144162,0.49493957268076216,-0.09618366371381681","0.38240568475417525,0.4136729392938614,-1.0","0.3446475566939091,0.32593623267112437,0.6573177271493604","1.0,-0.023115205136178596,-1.0",187,131,260,54,"-0.1160886962144162,0.49493957268076216,-0.09618366371381681",187,"-0.1160886962144162,0.49493957268076216,-0.09618366371381681",187,40,1.8794533999998748
Pri_ET_Study1_4,M,0/0/1900,2022-07-07_11h54.14.926,143,test,Prioritise1,1,circle,triangle,square,cross,"1.0,-0.15960027999342463,0.2690977661520819","1.0,-0.20149881210311282,-0.6002331830476271","-0.15691856372514257,0.4811251279442219,0.20925454252068332","0.7127176267031001,0.18557291042394586,0.6506302425082333",330,29,208,284,"1.0,-0.20149881210311282,-0.6002331830476271",29,"1.0,-0.09100024043058197,-1.0",45,249,2.5380460999995194
Pri_ET_Study1_4,M,0/0/1900,2022-07-07_11h54.14.926,144,test,Prioritise4,3,triangle,square,cross,circle,"1.0,-0.0932311933171065,0.374286934875081","-0.15913672951032076,0.48350679120805196,0.18230705521727808","0.6526534052453359,0.32395804637990677,-1.0","1.0,-0.007959551777363516,-1.0",321,206,108,56,"1.0,-0.007959551777363516,-1.0",56,"1.0,0.00043266500642058503,0.4945408245860483",309,54,2.426522300000215
Pri_ET_Study1_4,M,0/0/1900,2022-07-07_11h54.14.926,145,test,Prioritise1,3,square,cross,triangle,circle,"0.1673887875274096,0.46333008938060627,-0.7729226224565875","0.7362113369355152,0.2892555466706437,-1.0","0.4819850074232215,0.2784837623913883,0.6721002952002628","1.0,-0.24425036060701033,0.08619108045783674",151,101,269,344,"1.0,-0.24425036060701033,0.08619108045783674",344,"0.8886984490493344,0.21562474761751438,-1.0",88,60,2.7232036999994307
Pri_ET_Study1_4,M,0/0/1900,2022-07-07_11h54.14.926,146,test,Prioritise4,2,circle,triangle,cross,square,"-0.10674528321075638,0.4597702151299572,0.3704541436797111","1.0,-0.28331765203541326,-0.06912673399707303","1.0,-0.007413941176475647,0.4855113905503705","0.4981526525436166,0.3791643150394166,-1.0",221,355,310,121,"1.0,-0.007413941176475647,0.4855113905503705",310,"0.45139045294854396,0.393779284417197,-1.0",125,23,2.9588176999995994
Pri_ET_Study1_4,M,0/0/1900,2022-07-07_11h54.14.926,147,test,NoPrioritise,1,circle,cross,triangle,square,"0.5128942075651803,0.26707393527284795,0.6725600501236935","0.7362113369355152,0.2892555466706437,-1.0","1.0,-0.28704790815198966,-0.09816451385922986","-0.1598212484830719,0.4866460428277808,0.1409432704458322",271,101,357,203,"0.7362113369355152,0.2892555466706437,-1.0",101,"-0.017538974095646753,0.43320838581829424,0.48452289736445553",232,311,2.908545499999491
Pri_ET_Study1_4,M,0/0/1900,2022-07-07_11h54.14.926,148,test,Prioritise4,1,square,triangle,cross,circle,"1.0,0.06672643376273091,-1.0","0.21370971933434912,0.36697709911931464,0.6220261074603506","1.0,-0.030978196634575572,0.4572913763932509","0.4630300053623657,0.39022810787803497,-1.0",66,251,313,124,"0.21370971933434912,0.36697709911931464,0.6220261074603506",251,"1.0,-0.2853220527670477,-0.0836186653125478",356,149,3.0849042999998346
Pri_ET_Study1_4,M,0/0/1900,2022-07-07_11h54.14.926,149,test,Prioritise2,1,cross,square,triangle,circle,"0.003196340864616065,0.48789947231709707,-0.3930376390559923","0.8307090529045498,0.2453327610063578,-1.0","-0.10032491436032498,0.45768874039972984,0.3817396096664756","0.4051864188365102,0.30563705046778256,0.6664498358678796",169,93,222,264,"0.8307090529045498,0.2453327610063578,-1.0",93,"0.8072476110492377,0.25673500061136667,-1.0",95,139,4.76195110000026
Pri_ET_Study1_4,M,0/0/1900,2022-07-07_11h54.14.926,150,test,Prioritise2,1,triangle,circle,square,cross,"1.0,-0.13815640460244194,0.305409278040333","1.0,-0.20752138035248524,-0.5823144238115788","0.6056610145008174,0.2310032177113197,0.6677762187869551","0.7954699681646173,0.26233143705175754,-1.0",327,28,277,96,"1.0,-0.20752138035248524,-0.5823144238115788",28,"1.0,-0.18262560807777894,-0.6564771422547051",32,331,5.405627699999968
Pri_ET_Study1_4,M,0/0/1900,2022-07-07_11h54.14.926,151,test,Prioritise2,1,cross,square,circle,triangle,"1.0,-0.2885749142137033,-0.24639910949319843","-0.1598212484830719,0.4866460428277808,0.1409432704458322","0.32969209843730707,0.3308126345090221,0.6543985772501693","1.0,0.0520116041796701,-1.0",7,203,259,64,"-0.1598212484830719,0.4866460428277808,0.1409432704458322",203,"-0.1598212484830719,0.4866460428277808,0.1409432704458322",203,213,4.57587760000024
Pri_ET_Study1_4,M,0/0/1900,2022-07-07_11h54.14.926,152,test,Prioritise4,2,circle,cross,triangle,square,"0.4981526525436166,0.3791643150394166,-1.0","0.04661056885000425,0.4151827959781793,0.5366388806382338","1.0,-0.20149881210311282,-0.6002331830476271","1.0,-0.10844910144201803,0.3519141850209708",121,238,29,323,"1.0,-0.20149881210311282,-0.6002331830476271",29,"0.7123805921607476,0.2995277721370815,-1.0",103,232,4.259873199999674
Pri_ET_Study1_4,M,0/0/1900,2022-07-07_11h54.14.926,153,test,Prioritise3,0,square,triangle,cross,circle,"1.0,-0.06852917744512788,-1.0","0.557247182986663,0.35934004439537626,-1.0","1.0,-0.291416597096681,-0.18651092035548889","1.0,0.031678509722878445,0.528693730626498",48,116,3,305,"1.0,-0.06852917744512788,-1.0",48,"1.0,-0.24030349193845646,-0.4804258498410512",22,282,2.7706349000000046
Pri_ET_Study1_4,M,0/0/1900,2022-07-07_11h54.14.926,154,test,Prioritise2,3,circle,triangle,square,cross,"1.0,-0.28849207683894174,-0.11276294357485506","0.7481042841002781,0.28401253410301863,-1.0","0.10890282843090082,0.4735368131811257,-0.6233623294930688","-0.15087465470231598,0.47711162872615454,0.24867635980838454",358,100,157,211,"-0.15087465470231598,0.47711162872615454,0.24867635980838454",211,"0.7718332302050808,0.2733134055615505,-1.0",98,194,2.811012500000288
Pri_ET_Study1_4,M,0/0/1900,2022-07-07_11h54.14.926,155,test,Prioritise1,2,triangle,cross,circle,square,"1.0,0.0885108071490186,-1.0","1.0,-0.24513616553833184,-0.4641238358039159","0.7578023835242338,0.165070026077772,0.63954193062201","-0.14097292288545527,0.4934633616179327,-0.004268922352566595",69,21,287,193,"0.7578023835242338,0.165070026077772,0.63954193062201",287,"1.0,-0.24513616553833184,-0.4641238358039159",21,60,2.632748700000775
Pri_ET_Study1_4,M,0/0/1900,2022-07-07_11h54.14.926,156,test,Prioritise4,0,circle,cross,triangle,square,"0.6048714455845987,0.34221696469187823,-1.0","0.5747774279545166,0.24332959852807035,0.670395358395977","-0.15601024525342333,0.4900377710624384,0.08414494382818494","0.1184165720364383,0.4719787961363635,-0.6454646836219573",112,275,199,156,"0.6048714455845987,0.34221696469187823,-1.0",112,"1.0,-0.2810383691272422,-0.05469022987079308",354,122,3.323443600000246
Pri_ET_Study1_4,M,0/0/1900,2022-07-07_11h54.14.926,157,test,Prioritise3,3,cross,circle,square,triangle,"0.9165223056430671,0.08531838961047389,0.5804719469242157","0.8307090529045498,0.2453327610063578,-1.0","1.0,-0.283482916447115,-0.29186272671519153","-0.15913672951032076,0.48350679120805196,0.18230705521727808",298,93,10,206,"-0.15913672951032076,0.48350679120805196,0.18230705521727808",206,"-0.12384754992127334,0.4656289401720195,0.3355818842165046",218,134,2.2834747000006246
Pri_ET_Study1_4,M,0/0/1900,2022-07-07_11h54.14.926,158,test,Prioritise3,2,triangle,circle,cross,square,"1.0,-0.2853220527670477,-0.0836186653125478","0.5335383805596645,0.36747902832868284,-1.0","-0.01269399205840449,0.48953144240138324,-0.3581525544909092","0.9973143857544444,0.03943765994348003,0.5367265506444097",356,118,171,304,"-0.01269399205840449,0.48953144240138324,-0.3581525544909092",171,"-0.11109230792064029,0.494998675286374,-0.11182488810932678",186,120,2.477682800000366
Pri_ET_Study1_4,M,0/0/1900,2022-07-07_11h54.14.926,159,test,Prioritise2,2,square,circle,cross,triangle,"1.0,-0.21761393967782516,0.1537648375256555","0.9342399836420399,0.1906568045828605,-1.0","0.1673887875274096,0.46333008938060627,-0.7729226224565875","0.6670955436242052,0.20546863097446266,0.6594879335101997",339,84,151,281,"0.1673887875274096,0.46333008938060627,-0.7729226224565875",151,"0.7004475934634664,0.30455679594870433,-1.0",104,308,3.3140714999999545
Pri_ET_Study1_4,M,0/0/1900,2022-07-07_11h54.14.926,160,test,Prioritise2,0,square,triangle,cross,circle,"-0.07115460775268467,0.4487065849390661,0.42510855757080535","1.0,-0.2352776592018201,-0.4968859262116322","0.8307090529045498,0.2453327610063578,-1.0","0.3485477954945324,0.4227267056127266,-1.0",226,23,93,134,"-0.07115460775268467,0.4487065849390661,0.42510855757080535",226,"1.0,-0.24976805918886447,-0.4479639557291707",20,263,3.3237951999999495
Pri_ET_Study1_4,M,0/0/1900,2022-07-07_11h54.14.926,161,test,NoPrioritise,1,square,triangle,cross,circle,"1.0,-0.19533700364355222,-0.6185256211936343","1.0,-0.23416809090988489,0.11348302116348141","0.6885060196604067,0.3095143481419429,-1.0","-0.07115460775268467,0.4487065849390661,0.42510855757080535",30,342,105,226,"1.0,-0.23416809090988489,0.11348302116348141",342,"1.0,-0.2905679542092485,-0.21635494529981825",5,74,2.5590878000002704
Pri_ET_Study1_4,M,0/0/1900,2022-07-07_11h54.14.926,162,test,Prioritise2,2,cross,square,circle,triangle,"0.7362113369355152,0.2892555466706437,-1.0","-0.12538192785381974,0.49466166942996614,-0.0651744334368548","1.0,0.008268781307839035,0.5033766660072689","1.0,-0.2905679542092485,-0.21635494529981825",101,189,308,5,"1.0,0.008268781307839035,0.5033766660072689",308,"-0.15936350859590664,0.487578374203653,0.1269149288768463",202,248,2.5201426000003266
Pri_ET_Study1_4,M,0/0/1900,2022-07-07_11h54.14.926,163,test,NoPrioritise,3,square,triangle,circle,cross,"-0.0864279937772866,0.4533299305616785,0.40378459741649797","1.0,-0.07007995956776203,0.4066709204115653","1.0,0.12391818455152381,-1.0","0.10890282843090082,0.4735368131811257,-0.6233623294930688",224,318,74,157,"0.10890282843090082,0.4735368131811257,-0.6233623294930688",157,"0.7362113369355152,0.2892555466706437,-1.0",101,217,2.39397740000004
Pri_ET_Study1_4,M,0/0/1900,2022-07-07_11h54.14.926,164,test,NoPrioritise,1,circle,triangle,cross,square,"0.4981526525436166,0.3791643150394166,-1.0","1.0,0.023895135487088437,0.520455959599228","0.05398205218015839,0.48170764156945833,-0.5023703861935837","1.0,-0.26238457869240295,-0.4002073564444957",121,306,163,17,"1.0,0.023895135487088437,0.520455959599228",306,"1.0,-0.2897135245148047,-0.23135156862016248",6,147,2.5586253999999826
Pri_ET_Study1_4,M,0/0/1900,2022-07-07_11h54.14.926,165,test,Prioritise4,1,circle,square,cross,triangle,"-0.15913672951032076,0.48350679120805196,0.18230705521727808","1.0,-0.13481497066722903,-0.8172789642511413","0.4819850074232215,0.2784837623913883,0.6721002952002628","0.9677931896988998,0.1712594071065523,-1.0",206,39,269,81,"1.0,-0.13481497066722903,-0.8172789642511413",39,"1.0,-0.09100024043058197,-1.0",45,298,2.593550300000061
Pri_ET_Study1_4,M,0/0/1900,2022-07-07_11h54.14.926,166,test,Prioritise1,1,cross,triangle,square,circle,"1.0,-0.19533700364355222,-0.6185256211936343","-0.0889322071979689,0.49470485377678974,-0.17530036558846096","0.4282253351913974,0.40067838587068505,-1.0","0.7278119810668549,0.17880451220180715,0.6471802765379799",30,182,127,285,"-0.0889322071979689,0.49470485377678974,-0.17530036558846096",182,"0.6823545184579658,0.19890605819631269,0.6567852503614975",282,208,2.1764264000003095
Pri_ET_Study1_4,M,0/0/1900,2022-07-07_11h54.14.926,167,test,Prioritise4,1,circle,square,triangle,cross,"0.7127176267031001,0.18557291042394586,0.6506302425082333","1.0,-0.2787294505909397,-0.3224626175099854","-0.03665861455697994,0.4386499069954206,0.4655003413302212","1.0,-0.1159761024614836,0.3405028198215041",284,12,230,324,"1.0,-0.2787294505909397,-0.3224626175099854",12,"1.0,-0.29113614091237483,-0.20140827106110581",4,121,2.880502400000296
Pri_ET_Study1_4,M,0/0/1900,2022-07-07_11h54.14.926,168,test,Prioritise3,3,circle,cross,triangle,square,"1.0,-0.27293323902243416,-0.35332683897484074","0.3000437839717358,0.34032750492681907,0.6478023910819077","0.8307090529045498,0.2453327610063578,-1.0","1.0,-0.030978196634575572,0.4572913763932509",14,257,93,313,"1.0,-0.030978196634575572,0.4572913763932509",313,"-0.15087465470231598,0.47711162872615454,0.24867635980838454",211,63,2.808202500000334
Pri_ET_Study1_4,M,0/0/1900,2022-07-07_11h54.14.926,169,test,Prioritise3,0,circle,triangle,square,cross,"0.28536486694739915,0.3449661378960809,0.6441272460635925","1.0,-0.2352776592018201,-0.4968859262116322","-0.15913672951032076,0.48350679120805196,0.18230705521727808","0.8656291340184048,0.2277117481201254,-1.0",256,23,206,90,"0.28536486694739915,0.3449661378960809,0.6441272460635925",256,"1.0,0.03716450464441401,-1.0",62,127,1.7706321000005119
Pri_ET_Study1_4,M,0/0/1900,2022-07-07_11h54.14.926,170,test,Prioritise2,3,cross,square,circle,triangle,"0.8885895249151152,0.10029123080933622,0.593298310174416","0.5810306884554026,0.3509198779468534,-1.0","-0.1481252589400609,0.4756545429797898,0.26153874370652797","1.0,-0.12765325079304635,-0.8480385611780058",296,114,212,40,"1.0,-0.12765325079304635,-0.8480385611780058",40,"-0.07663707943429687,0.49424057193593485,-0.2075945922293636",180,50,3.2376893999999083
Pri_ET_Study1_4,M,0/0/1900,2022-07-07_11h54.14.926,171,test,NoPrioritise,0,cross,square,triangle,circle,"1.0,0.13084904670314157,-1.0","0.6364477477613335,0.21838082541010184,0.6641383826852352","-0.15218698220497417,0.491399065672369,0.0550849709310266","1.0,-0.24898244687401672,0.0724226931177736",75,279,197,345,"1.0,0.13084904670314157,-1.0",75,"-0.1160886962144162,0.49493957268076216,-0.09618366371381681",187,186,2.1215369000001374
Pri_ET_Study1_4,M,0/0/1900,2022-07-07_11h54.14.926,172,test,Prioritise1,0,triangle,square,circle,cross,"0.03656203285471027,0.4839890544285097,-0.46499532916065","1.0,-0.1453950522675579,0.29343624696038684","0.1997782184249719,0.37114427631595914,0.6168699381761522","1.0,-0.023115205136178596,-1.0",165,328,250,54,"0.03656203285471027,0.4839890544285097,-0.46499532916065",165,"-0.05680994196765965,0.4931478034098584,-0.2567707460520542",177,352,3.0050956999994014
Pri_ET_Study1_4,M,0/0/1900,2022-07-07_11h54.14.926,173,test,Prioritise1,0,triangle,square,cross,circle,"-0.08288077159008311,0.49449913405181634,-0.1914000323192474","0.024156992038590452,0.42147876676365525,0.5201127943356356","1.0,-0.2133971103908915,-0.5647212078646006","1.0,-0.05449202187079283,0.427438243059558",181,236,27,316,"-0.08288077159008311,0.49449913405181634,-0.1914000323192474",181,"-0.12538192785381974,0.49466166942996614,-0.0651744334368548",189,171,3.108928100000412
Pri_ET_Study1_4,M,0/0/1900,2022-07-07_11h54.14.926,174,test,Prioritise2,3,cross,triangle,circle,square,"1.0,-0.28331765203541326,-0.06912673399707303","0.9575099088241161,0.0625393185362546,0.5595685159060846","-0.15087465470231598,0.47711162872615454,0.24867635980838454","0.14752787305018233,0.4669625621869047,-0.7174796825499677",355,301,211,153,"0.14752787305018233,0.4669625621869047,-0.7174796825499677",153,"1.0,-0.18672585607811187,0.21894575397790916",334,244,2.3411753000000317
Pri_ET_Study1_4,M,0/0/1900,2022-07-07_11h54.14.926,175,test,Prioritise3,1,cross,triangle,circle,square,"1.0,-0.06852917744512788,-1.0","0.18759316868675757,0.45946387343509576,-0.8398972692549822","1.0,-0.291416597096681,-0.18651092035548889","0.8022226392771252,0.14399413187212562,0.6262603189685363",48,149,3,290,"0.18759316868675757,0.45946387343509576,-0.8398972692549822",149,"0.9973143857544444,0.03943765994348003,0.5367265506444097",304,124,4.227557400000478
Pri_ET_Study1_4,M,0/0/1900,2022-07-07_11h54.14.926,176,test,NoPrioritise,3,square,cross,triangle,circle,"0.15741439024530024,0.4651753747362595,-0.7441898531558468","0.3446475566939091,0.32593623267112437,0.6573177271493604","0.8189948021797893,0.2510686603392729,-1.0","-0.1552691192795369,0.47984650043174004,0.22253130766167373",152,260,94,209,"-0.1552691192795369,0.47984650043174004,0.22253130766167373",209,"0.3148218664135791,0.3356097028178475,0.6512264970146455",258,53,3.1816401999994923
Pri_ET_Study1_4,M,0/0/1900,2022-07-07_11h54.14.926,177,test,Prioritise4,1,circle,cross,square,triangle,"1.0,-0.27567226916307197,-0.025990342729996674","1.0,-0.176090722701999,-0.6762956704638035","0.7243026375027783,0.2944273290124073,-1.0","0.8458569493622168,0.12238552790175761,0.6108291411981881",352,33,102,293,"1.0,-0.176090722701999,-0.6762956704638035",33,"-0.06301515924349677,0.44629443292921844,0.43549282839157066",227,287,2.4081718999996156
Pri_ET_Study1_4,M,0/0/1900,2022-07-07_11h54.14.926,178,test,Prioritise4,3,circle,triangle,cross,square,"0.4397882380638529,0.39726260220805054,-1.0","1.0,-0.12042756170577695,-0.8836340589512358","-0.12966480223349675,0.49444262706220066,-0.04980752507879116","0.697563521415238,0.19227379976898162,0.6538323072937366",126,41,190,283,"0.697563521415238,0.19227379976898162,0.6538323072937366",283,"1.0,-0.12765325079304635,-0.8480385611780058",40,191,3.713629299999411
Pri_ET_Study1_4,M,0/0/1900,2022-07-07_11h54.14.926,179,test,Prioritise3,2,circle,triangle,cross,square,"1.0,-0.20752138035248524,-0.5823144238115788","0.30417514509994215,0.43389432139899475,-1.0","0.9229356114863154,0.19699631777014193,-1.0","1.0,-0.2288330890480459,0.12700076968242469",28,138,85,341,"0.9229356114863154,0.19699631777014193,-1.0",85,"0.9709143462906737,0.05487098646765176,0.5521665648538059",302,175,2.1063537999998516
Pri_ET_Study1_4,M,0/0/1900,2022-07-07_11h54.14.926,180,test,Prioritise4,0,triangle,square,cross,circle,"0.35978173682339754,0.41977397962065344,-1.0","1.0,-0.14892208927791584,-0.7642951287839744","1.0,-0.007413941176475647,0.4855113905503705","-0.07663707943429687,0.49424057193593485,-0.2075945922293636",133,37,310,180,"0.35978173682339754,0.41977397962065344,-1.0",133,"-0.12085421394465079,0.49482727509491764,-0.08063336981743141",188,134,2.1564127000001463
Pri_ET_Study1_4,M,0/0/1900,2022-07-07_11h54.14.926,181,test,NoPrioritise,3,circle,cross,square,triangle,"1.0,-0.24030349193845646,-0.4804258498410512","0.911575527904773,0.20327130372654878,-1.0","1.0,-0.19952917352700617,0.19318579588388318","0.6823545184579658,0.19890605819631269,0.6567852503614975",22,86,336,282,"0.6823545184579658,0.19890605819631269,0.6567852503614975",282,"-0.1415152911985038,0.4725588943334964,0.2868282896334675",214,322,2.383214799999223
Pri_ET_Study1_4,M,0/0/1900,2022-07-07_11h54.14.926,182,test,Prioritise2,3,triangle,square,circle,cross,"1.0,0.029697581538389972,-1.0","0.5593128013847881,0.24938009178326226,0.6713213889936891","1.0,-0.289651960671372,-0.12741280502186536","-0.07020697204541848,0.49392917223661503,-0.22388609625324785",61,274,359,179,"-0.07020697204541848,0.49392917223661503,-0.22388609625324785",179,"0.27079222332264496,0.349525727356639,0.6402021298134932",255,275,2.3269075999996858
Pri_ET_Study1_4,M,0/0/1900,2022-07-07_11h54.14.926,183,test,Prioritise4,3,circle,triangle,cross,square,"1.0,0.13084904670314157,-1.0","1.0,-0.22467733398512213,-0.5303566464837048","0.5453823652594301,0.36344457638027117,-1.0","0.6056610145008174,0.2310032177113197,0.6677762187869551",75,25,117,277,"0.6056610145008174,0.2310032177113197,0.6677762187869551",277,"0.4511598862406947,0.28958122135142217,0.6706112376461497",267,225,1.9794608000001972
Pri_ET_Study1_4,M,0/0/1900,2022-07-07_11h54.14.926,184,test,Prioritise2,1,circle,cross,square,triangle,"0.9973143857544444,0.03943765994348003,0.5367265506444097","1.0,-0.11314379054822865,-0.9277147292103822","0.18759316868675757,0.45946387343509576,-0.8398972692549822","0.18599750731146814,0.3752337008299145,0.6114718629309206",304,42,149,249,"1.0,-0.11314379054822865,-0.9277147292103822",42,"1.0,-0.12042756170577695,-0.8836340589512358",41,32,2.0377470000003086
Pri_ET_Study1_4,M,0/0/1900,2022-07-07_11h54.14.926,185,test,Prioritise1,2,triangle,cross,circle,square,"1.0,-0.265680167273015,0.01659727634298691","0.5283655398475315,0.26125276704655587,0.6724040666408482","0.5335383805596645,0.36747902832868284,-1.0","1.0,-0.14190666083918357,-0.7896703829265752",349,272,118,38,"0.5335383805596645,0.36747902832868284,-1.0",118,"1.0,-0.2787294505909397,-0.3224626175099854",12,173,2.325801599999977
Pri_ET_Study1_4,M,0/0/1900,2022-07-07_11h54.14.926,186,test,Prioritise1,2,cross,square,triangle,circle,"-0.15601024525342333,0.4900377710624384,0.08414494382818494","0.1997782184249719,0.37114427631595914,0.6168699381761522","1.0,-0.2914084206358549,-0.1716625835351976","1.0,0.031678509722878445,0.528693730626498",199,250,2,305,"1.0,-0.2914084206358549,-0.1716625835351976",2,"-0.1582066093163167,0.48234509352938293,0.19584550247902222",207,304,2.5106501000000208
Pri_ET_Study1_4,M,0/0/1900,2022-07-07_11h54.14.926,187,test,Prioritise3,0,circle,triangle,square,cross,"-0.15601024525342333,0.4900377710624384,0.08414494382818494","0.8189948021797893,0.2510686603392729,-1.0","0.4051864188365102,0.30563705046778256,0.6664498358678796","1.0,-0.2885749142137033,-0.24639910949319843",199,94,264,7,"-0.15601024525342333,0.4900377710624384,0.08414494382818494",199,"0.43579397082986615,0.29501209376045523,0.6694809165992386",266,329,2.7704587999996875
Pri_ET_Study1_4,M,0/0/1900,2022-07-07_11h54.14.926,188,test,Prioritise1,0,square,cross,triangle,circle,"-0.02724900693809007,0.43596400275120595,0.47511170232003863","-0.08288077159008311,0.49449913405181634,-0.1914000323192474","0.9229356114863154,0.19699631777014193,-1.0","1.0,-0.19319706407583936,0.20612000948251996",231,181,85,335,"-0.02724900693809007,0.43596400275120595,0.47511170232003863",231,"0.002753009035763032,0.42748599986642954,0.5027340537090634",234,292,3.3398925999999847
Pri_ET_Study1_4,M,0/0/1900,2022-07-07_11h54.14.926,189,test,Prioritise1,2,square,triangle,cross,circle,"1.0,-0.02312336799965975,0.4668836380243213","0.9898363577373541,0.15802139914365565,-1.0","0.28235212283095645,0.4390974279014652,-1.0","-0.15857178695416452,0.48845422840718666,0.1127707600476957",312,79,140,201,"0.28235212283095645,0.4390974279014652,-1.0",140,"0.9026141269879491,0.09282770385166228,0.5869975937203944",297,272,2.528527999999824
Pri_ET_Study1_4,M,0/0/1900,2022-07-07_11h54.14.926,190,test,Prioritise4,0,square,cross,triangle,circle,"0.557247182986663,0.35934004439537626,-1.0","1.0,0.00043266500642058503,0.4945408245860483","0.18599750731146814,0.3752337008299145,0.6114718629309206","1.0,0.10990102188412854,-1.0",116,309,249,72,"0.557247182986663,0.35934004439537626,-1.0",116,"0.6048714455845987,0.34221696469187823,-1.0",112,240,4.746387900000627
Pri_ET_Study1_4,M,0/0/1900,2022-07-07_11h54.14.926,191,test,Prioritise1,1,triangle,square,cross,circle,"0.09441071644993415,0.40170970408167506,0.5670564126145141","1.0,-0.21911833444213913,-0.5474132739956148","0.4981526525436166,0.3791643150394166,-1.0","0.9677931896988998,0.1712594071065523,-1.0",242,26,121,81,"1.0,-0.21911833444213913,-0.5474132739956148",26,"-0.14500574250124976,0.47413711311303364,0.2742570559677715",213,178,2.971346899999844
Pri_ET_Study1_4,M,0/0/1900,2022-07-07_11h54.14.926,192,test,Prioritise3,3,circle,square,triangle,cross,"0.4630300053623657,0.39022810787803497,-1.0","0.03525654226328623,0.4183671124064994,0.5284836519992187","1.0,-0.1159761024614836,0.3405028198215041","1.0,0.022205290041545256,-1.0",124,237,324,60,"1.0,0.022205290041545256,-1.0",60,"1.0,-0.1453950522675579,0.29343624696038684",328,15,3.1366204999994807
Pri_ET_Study1_4,M,0/0/1900,2022-07-07_11h54.14.926,193,test,Prioritise3,0,cross,square,circle,triangle,"-0.14500574250124976,0.47413711311303364,0.2742570559677715","1.0,-0.08353952619481586,-1.0","0.4511598862406947,0.28958122135142217,0.6706112376461497","1.0,-0.030978196634575572,0.4572913763932509",213,46,267,313,"-0.14500574250124976,0.47413711311303364,0.2742570559677715",213,"1.0,0.016090771115826907,0.5120159997035829",307,21,2.740936199999851
Pri_ET_Study1_4,M,0/0/1900,2022-07-07_11h54.14.926,194,test,Prioritise2,0,circle,cross,square,triangle,"0.6168077568629242,0.33775906377670717,-1.0","1.0,0.10281785561567158,-1.0","-0.15913672951032076,0.48350679120805196,0.18230705521727808","0.4665589352747248,0.2840716923699367,0.6714844115718321",111,71,206,268,"0.6168077568629242,0.33775906377670717,-1.0",111,"0.8458569493622168,0.12238552790175761,0.6108291411981881",293,81,2.540432700000565
Pri_ET_Study1_4,M,0/0/1900,2022-07-07_11h54.14.926,195,test,NoPrioritise,1,circle,triangle,square,cross,"0.4511598862406947,0.28958122135142217,0.6706112376461497","0.4282253351913974,0.40067838587068505,-1.0","1.0,-0.19952917352700617,0.19318579588388318","0.9677931896988998,0.1712594071065523,-1.0",267,127,336,81,"0.4282253351913974,0.40067838587068505,-1.0",127,"-0.0889322071979689,0.49470485377678974,-0.17530036558846096",182,158,4.939550500000223
Pri_ET_Study1_4,M,0/0/1900,2022-07-07_11h54.14.926,196,test,Prioritise1,3,circle,triangle,cross,square,"1.0,-0.29111130123666484,-0.15686324257888173","0.5691306813430501,0.3551652128948415,-1.0","0.8458569493622168,0.12238552790175761,0.6108291411981881","0.2277843781848521,0.3627318956570289,0.6269388339435948",1,115,293,252,"0.2277843781848521,0.3627318956570289,0.6269388339435948",252,"-0.15936350859590664,0.487578374203653,0.1269149288768463",202,23,2.7882110000000466
Pri_ET_Study1_4,M,0/0/1900,2022-07-07_11h54.14.926,197,test,NoPrioritise,0,circle,square,triangle,cross,"0.18599750731146814,0.3752337008299145,0.6114718629309206","1.0,-0.2812391217555803,-0.30713162009795525","-0.15691856372514257,0.4811251279442219,0.20925454252068332","0.45139045294854396,0.393779284417197,-1.0",249,11,208,125,"0.18599750731146814,0.3752337008299145,0.6114718629309206",249,"1.0,-0.2759589912597996,-0.3378595329546661",13,330,2.325304099999812
Pri_ET_Study1_4,M,0/0/1900,2022-07-07_11h54.14.926,198,test,Prioritise1,1,triangle,circle,cross,square,"0.7127176267031001,0.18557291042394586,0.6506302425082333","-0.09355100115627091,0.45554214766479406,0.3928507547204487","1.0,0.0885108071490186,-1.0","1.0,-0.2905679542092485,-0.21635494529981825",284,223,69,5,"-0.09355100115627091,0.45554214766479406,0.3928507547204487",223,"-0.10032491436032498,0.45768874039972984,0.3817396096664756",222,199,1.8416308000005301
Pri_ET_Study1_4,M,0/0/1900,2022-07-07_11h54.14.926,199,test,Prioritise1,1,circle,triangle,cross,square,"0.19781922438295352,0.4574422518266765,-0.8818361039644314","1.0,-0.023115205136178596,-1.0","1.0,-0.0932311933171065,0.374286934875081","0.8072476110492377,0.25673500061136667,-1.0",148,54,321,95,"1.0,-0.023115205136178596,-1.0",54,"-0.1334211421392112,0.46921826779504494,0.31151742599586085",216,148,2.6575149000000238
Pri_ET_Study1_4,M,0/0/1900,2022-07-07_11h54.14.926,200,test,Prioritise3,1,cross,circle,triangle,square,"0.058211064666331636,0.41192535001918484,0.5445760826660213","1.0,-0.17339639938985352,0.2442586263282529","-0.14981892062729885,0.491997057231198,0.04039774195876733","0.21850949126575658,0.4532202130288874,-0.9933869065076532",239,332,196,146,"1.0,-0.17339639938985352,0.2442586263282529",332,"-0.14981892062729885,0.491997057231198,0.04039774195876733",196,322,1.5932512999997925
Pri_ET_Study1_4,M,0/0/1900,2022-07-07_11h54.14.926,201,test,Prioritise2,2,triangle,cross,square,circle,"1.0,-0.20752138035248524,-0.5823144238115788","0.2563330525591274,0.3540064263668754,0.6360281906414551","1.0,0.11693500061052231,-1.0","0.011345098196205106,0.4870029319956142,-0.41073039696963887",28,254,73,168,"1.0,0.11693500061052231,-1.0",73,"0.557247182986663,0.35934004439537626,-1.0",116,10,7.397042900000088
Pri_ET_Study1_4,M,0/0/1900,2022-07-07_11h54.14.926,202,test,Prioritise4,0,triangle,cross,circle,square,"1.0,-0.2885749142137033,-0.24639910949319843","0.22896995211020998,0.45101907426419996,-1.0","1.0,0.04460337025072447,-1.0","-0.15601024525342333,0.4900377710624384,0.08414494382818494",7,145,63,199,"1.0,-0.2885749142137033,-0.24639910949319843",7,"-0.14981892062729885,0.491997057231198,0.04039774195876733",196,336,1.9287404000006063
Pri_ET_Study1_4,M,0/0/1900,2022-07-07_11h54.14.926,203,test,NoPrioritise,2,triangle,cross,square,circle,"1.0,-0.28704790815198966,-0.09816451385922986","0.5283655398475315,0.26125276704655587,0.6724040666408482","0.7954699681646173,0.26233143705175754,-1.0","-0.07663707943429687,0.49424057193593485,-0.2075945922293636",357,272,96,180,"0.7954699681646173,0.26233143705175754,-1.0",96,"0.13253781604398185,0.3908200528647623,0.5874938236427092",245,178,1.92712389999906
Pri_ET_Study1_4,M,0/0/1900,2022-07-07_11h54.14.926,204,test,Prioritise1,3,square,cross,triangle,circle,"0.1184165720364383,0.4719787961363635,-0.6454646836219573","0.9575099088241161,0.0625393185362546,0.5595685159060846","1.0,0.022205290041545256,-1.0","-0.11850987372908683,0.4637398184337027,0.34737226103556385",156,301,60,219,"-0.11850987372908683,0.4637398184337027,0.34737226103556385",219,"0.21850949126575658,0.4532202130288874,-0.9933869065076532",146,341,1.8123467999994318
Pri_ET_Study1_4,M,0/0/1900,2022-07-07_11h54.14.926,205,test,Prioritise1,0,circle,square,triangle,cross,"1.0,-0.12042756170577695,-0.8836340589512358","0.25011230249462657,0.4464347244570299,-1.0","0.9026141269879491,0.09282770385166228,0.5869975937203944","0.7718332302050808,0.2733134055615505,-1.0",41,143,297,98,"1.0,-0.12042756170577695,-0.8836340589512358",41,"-0.15325530146069954,0.47850880592239364,0.23567289266690317",210,151,2.596782399999938
Pri_ET_Study1_4,M,0/0/1900,2022-07-07_11h54.14.926,206,test,Prioritise2,2,triangle,cross,circle,square,"0.9454860823634645,0.18425356693025585,-1.0","1.0,-0.12344048141961106,0.3289459564990056","-0.045760705841983884,0.4412666063320212,0.45569155140365925","1.0,-0.12042756170577695,-0.8836340589512358",83,325,229,41,"-0.045760705841983884,0.4412666063320212,0.45569155140365925",229,"1.0,-0.007413941176475647,0.4855113905503705",310,235,2.4634624000009353
Pri_ET_Study1_4,M,0/0/1900,2022-07-07_11h54.14.926,207,test,Prioritise2,0,circle,square,triangle,cross,"1.0,-0.22467733398512213,-0.5303566464837048","0.02803139784776887,0.4850479085911541,-0.44669070010662637","0.8189948021797893,0.2510686603392729,-1.0","0.18599750731146814,0.3752337008299145,0.6114718629309206",25,166,94,249,"1.0,-0.22467733398512213,-0.5303566464837048",25,"1.0,-0.12042756170577695,-0.8836340589512358",41,142,1.7038644999993267
Pri_ET_Study1_4,M,0/0/1900,2022-07-07_11h54.14.926,208,test,Prioritise1,3,cross,circle,triangle,square,"1.0,0.022205290041545256,-1.0","0.6517915958318632,0.21196052870658733,0.661939301509457","-0.14981892062729885,0.491997057231198,0.04039774195876733","0.7123805921607476,0.2995277721370815,-1.0",60,280,196,103,"0.7123805921607476,0.2995277721370815,-1.0",103,"0.9566713411825642,0.17778746275501622,-1.0",82,277,2.3785685999991983
Pri_ET_Study1_4,M,0/0/1900,2022-07-07_11h54.14.926,209,test,Prioritise4,3,square,cross,circle,triangle,"0.8602068900008202,0.11507220116757,0.6052161878467197","0.7004475934634664,0.30455679594870433,-1.0","-0.12881863109484093,0.46745492896353924,0.32362925960524147","1.0,-0.23416809090988489,0.11348302116348141",294,104,217,342,"1.0,-0.23416809090988489,0.11348302116348141",342,"0.5902286499321849,0.2372037618456999,0.6692134526599127",276,214,2.241723600000114
Pri_ET_Study1_4,M,0/0/1900,2022-07-07_11h54.14.926,210,test,Prioritise3,1,triangle,cross,circle,square,"1.0,0.03716450464441401,-1.0","-0.14097292288545527,0.4934633616179327,-0.004268922352566595","1.0,-0.2810383691272422,-0.05469022987079308","0.09441071644993415,0.40170970408167506,0.5670564126145141",62,193,354,242,"-0.14097292288545527,0.4934633616179327,-0.004268922352566595",193,"1.0,-0.06852917744512788,-1.0",48,257,2.2807141000012052
Pri_ET_Study1_4,M,0/0/1900,2022-07-07_11h54.14.926,211,test,NoPrioritise,2,triangle,cross,circle,square,"0.14752787305018233,0.4669625621869047,-0.7174796825499677","1.0,-0.24976805918886447,-0.4479639557291707","0.8423878648894922,0.2395276862660105,-1.0","1.0,-0.20571451687417974,0.18014638001872707",153,20,92,337,"0.8423878648894922,0.2395276862660105,-1.0",92,"1.0,0.08129056571751603,-1.0",68,60,2.1774660000010044
Pri_ET_Study1_4,M,0/0/1900,2022-07-07_11h54.14.926,212,test,Prioritise2,2,square,cross,circle,triangle,"-0.14500574250124976,0.47413711311303364,0.2742570559677715","0.6210691465439071,0.22472865664823272,0.6660842894513506","1.0,-0.2784883645829067,-0.04031082501765193","0.9898363577373541,0.15802139914365565,-1.0",213,278,353,79,"1.0,-0.2784883645829067,-0.04031082501765193",353,"1.0,-0.03828278687151976,-1.0",52,117,2.792047900000398
Pri_ET_Study1_4,M,0/0/1900,2022-07-07_11h54.14.926,213,test,Prioritise3,1,triangle,circle,square,cross,"1.0,-0.16269839246793216,-0.7181852224820324","-0.04985376064386149,0.4926777683571715,-0.2733707743273047","1.0,-0.15960027999342463,0.2690977661520819","0.6048714455845987,0.34221696469187823,-1.0",35,176,330,112,"-0.04985376064386149,0.4926777683571715,-0.2733707743273047",176,"0.7123805921607476,0.2995277721370815,-1.0",103,90,3.8590401000001293
Pri_ET_Study1_4,M,0/0/1900,2022-07-07_11h54.14.926,214,test,Prioritise1,0,square,cross,circle,triangle,"1.0,0.13084904670314157,-1.0","0.4051864188365102,0.30563705046778256,0.6664498358678796","1.0,-0.18904346603826983,-0.637249894721835","0.45139045294854396,0.393779284417197,-1.0",75,264,31,125,"1.0,0.13084904670314157,-1.0",75,"1.0,-0.13481497066722903,-0.8172789642511413",39,53,2.7768517000004067
