id,gender,dob,date,n_trial,test_stage,condition,tested_position,shape_0,shape_1,shape_2,shape_3,color_0,color_1,color_2,color_3,color_angle_0,color_angle_1,color_angle_2,color_angle_3,correct_response,correct_response_angle,response,response_angle,wheel_rotation,reaction_time
Pri_ET_Study1_1,M,0/0/1900,2022-06-21_15h17.25.968,1,practice_pri,Prioritise3,3,square,cross,circle,triangle,"0.38240568475417525,0.4136729392938614,-1.0","0.9898363577373541,0.15802139914365565,-1.0","-0.14715582087117385,0.4925402828135286,0.025608434090147236","1.0,-0.1694459751095364,-0.6968170409133772",131,79,195,34,"1.0,-0.1694459751095364,-0.6968170409133772",34,"1.0,-0.28715474606071,-0.26149890951485844",8,337,3.799701500000083
Pri_ET_Study1_1,M,0/0/1900,2022-06-21_15h17.25.968,2,practice_pri,Prioritise2,3,circle,cross,square,triangle,"1.0,0.008268781307839035,0.5033766660072689","1.0,-0.07604755533137741,-1.0","-0.15425303278284086,0.49074605836511664,0.06966808771232391","0.28536486694739915,0.3449661378960809,0.6441272460635925",308,47,198,256,"0.28536486694739915,0.3449661378960809,0.6441272460635925",256,"0.8072476110492377,0.25673500061136667,-1.0",95,233,3.715291600000455
Pri_ET_Study1_1,M,0/0/1900,2022-06-21_15h17.25.968,3,practice_pri,NoPrioritise,1,circle,square,cross,triangle,"-0.07663707943429687,0.49424057193593485,-0.2075945922293636","0.4630300053623657,0.39022810787803497,-1.0","1.0,-0.24513616553833184,-0.4641238358039159","0.9454860823634645,0.18425356693025585,-1.0",180,124,21,83,"0.4630300053623657,0.39022810787803497,-1.0",124,"0.03656203285471027,0.4839890544285097,-0.46499532916065",165,335,2.6786902000003465
Pri_ET_Study1_1,M,0/0/1900,2022-06-21_15h17.25.968,4,practice_pri,Prioritise4,1,square,cross,triangle,circle,"1.0,-0.11314379054822865,-0.9277147292103822","0.06286533759988822,0.4804846395944975,-0.5215000541421746","1.0,-0.05449202187079283,0.427438243059558","0.6526534052453359,0.32395804637990677,-1.0",42,162,316,108,"0.06286533759988822,0.4804846395944975,-0.5215000541421746",162,"1.0,-0.060989074760531836,-1.0",49,359,2.6017659999997704
Pri_ET_Study1_1,M,0/0/1900,2022-06-21_15h17.25.968,5,practice_pri,Prioritise1,0,circle,cross,square,triangle,"0.4051864188365102,0.30563705046778256,0.6664498358678796","1.0,-0.10580765013847959,-0.9756165541078137","0.47470490157818523,0.38660875671905104,-1.0","-0.11109230792064029,0.494998675286374,-0.11182488810932678",264,43,123,186,"0.4051864188365102,0.30563705046778256,0.6664498358678796",264,"0.4051864188365102,0.30563705046778256,0.6664498358678796",264,324,2.3495960000000196
Pri_ET_Study1_1,M,0/0/1900,2022-06-21_15h17.25.968,1,test,Prioritise4,3,triangle,cross,circle,square,"0.8189948021797893,0.2510686603392729,-1.0","1.0,-0.23006636068103248,-0.5135224369802548","-0.03545149328753128,0.4915787209123279,-0.3069086161051545","-0.045760705841983884,0.4412666063320212,0.45569155140365925",94,24,174,229,"-0.045760705841983884,0.4412666063320212,0.45569155140365925",229,"-0.0864279937772866,0.4533299305616785,0.40378459741649797",224,281,2.684200200000305
Pri_ET_Study1_1,M,0/0/1900,2022-06-21_15h17.25.968,2,test,Prioritise4,0,cross,circle,square,triangle,"0.09017416231209929,0.4764835565228893,-0.581140049938324","0.6670955436242052,0.20546863097446266,0.6594879335101997","-0.007535811164553707,0.4303825516742039,0.4937312314227156","1.0,0.01469043779870538,-1.0",159,281,233,59,"0.09017416231209929,0.4764835565228893,-0.581140049938324",159,"0.06286533759988822,0.4804846395944975,-0.5215000541421746",162,238,3.222349900000154
Pri_ET_Study1_1,M,0/0/1900,2022-06-21_15h17.25.968,3,test,Prioritise1,3,square,circle,cross,triangle,"0.1774490411200258,0.4614263698132157,-0.8044096137074778","0.7836643519746782,0.2678576623980824,-1.0","0.697563521415238,0.19227379976898162,0.6538323072937366","1.0,-0.03828278687151976,-1.0",150,97,283,52,"1.0,-0.03828278687151976,-1.0",52,"0.8307090529045498,0.2453327610063578,-1.0",93,102,3.7862401000002137
Pri_ET_Study1_1,M,0/0/1900,2022-06-21_15h17.25.968,4,test,Prioritise3,0,cross,square,triangle,circle,"-0.12085421394465079,0.49482727509491764,-0.08063336981743141","0.7954699681646173,0.26233143705175754,-1.0","0.28536486694739915,0.3449661378960809,0.6441272460635925","1.0,0.023895135487088437,0.520455959599228",188,96,256,306,"-0.12085421394465079,0.49482727509491764,-0.08063336981743141",188,"0.37478692104604905,0.3159453148278393,0.6623940312376342",262,276,3.644921600000089
Pri_ET_Study1_1,M,0/0/1900,2022-06-21_15h17.25.968,5,test,Prioritise3,0,square,cross,triangle,circle,"0.7836643519746782,0.2678576623980824,-1.0","0.4204673865307198,0.3003640950728248,0.6680936776579738","1.0,-0.10844910144201803,0.3519141850209708","0.1184165720364383,0.4719787961363635,-0.6454646836219573",97,265,323,156,"0.7836643519746782,0.2678576623980824,-1.0",97,"0.8656291340184048,0.2277117481201254,-1.0",90,173,3.3251205999995364
Pri_ET_Study1_1,M,0/0/1900,2022-06-21_15h17.25.968,6,test,Prioritise1,2,circle,cross,square,triangle,"0.003196340864616065,0.48789947231709707,-0.3930376390559923","1.0,-0.24425036060701033,0.08619108045783674","0.1456375685133382,0.387038501124352,0.5938426811268567","0.6885060196604067,0.3095143481419429,-1.0",169,344,246,105,"0.1456375685133382,0.387038501124352,0.5938426811268567",246,"0.4511598862406947,0.28958122135142217,0.6706112376461497",267,36,2.919706500000757
Pri_ET_Study1_1,M,0/0/1900,2022-06-21_15h17.25.968,7,test,Prioritise1,3,cross,square,circle,triangle,"-0.1598212484830719,0.4866460428277808,0.1409432704458322","1.0,-0.18262560807777894,-0.6564771422547051","0.6287517000804042,0.333230015934751,-1.0","1.0,-0.25779156666188097,0.04465505589445962",203,32,110,347,"1.0,-0.25779156666188097,0.04465505589445962",347,"1.0,-0.0932311933171065,0.374286934875081",321,177,3.990662600000178
Pri_ET_Study1_1,M,0/0/1900,2022-06-21_15h17.25.968,8,test,Prioritise1,3,square,circle,cross,triangle,"-0.15913672951032076,0.48350679120805196,0.18230705521727808","0.6823545184579658,0.19890605819631269,0.6567852503614975","1.0,0.007155954649565421,-1.0","1.0,-0.2897135245148047,-0.23135156862016248",206,282,58,6,"1.0,-0.2897135245148047,-0.23135156862016248",6,"0.04521328814621106,0.4828757040428189,-0.4835461552047625",164,96,2.7643778000001475
Pri_ET_Study1_1,M,0/0/1900,2022-06-21_15h17.25.968,9,test,Prioritise4,3,triangle,square,cross,circle,"0.8885895249151152,0.10029123080933622,0.593298310174416","1.0,-0.24898244687401672,0.0724226931177736","1.0,0.09568719202827336,-1.0","0.11962807502985351,0.3945255124543332,0.5809118383777745",296,345,70,244,"0.11962807502985351,0.3945255124543332,0.5809118383777745",244,"-0.007535811164553707,0.4303825516742039,0.4937312314227156",233,38,2.9728804000005766
Pri_ET_Study1_1,M,0/0/1900,2022-06-21_15h17.25.968,10,test,NoPrioritise,3,triangle,square,circle,cross,"0.21370971933434912,0.36697709911931464,0.6220261074603506","1.0,-0.21761393967782516,0.1537648375256555","1.0,-0.09842467873037941,-1.0","0.5929450132200651,0.3466038519932022,-1.0",251,339,44,113,"0.5929450132200651,0.3466038519932022,-1.0",113,"0.07004997715874661,0.40859431628906884,0.5522929170622126",240,225,5.0377072999999655
Pri_ET_Study1_1,M,0/0/1900,2022-06-21_15h17.25.968,11,test,Prioritise4,2,triangle,square,cross,circle,"1.0,-0.18672585607811187,0.21894575397790916","1.0,0.01469043779870538,-1.0","-0.10043403746491275,0.49495767021285575,-0.14337977127983403","0.2563330525591274,0.3540064263668754,0.6360281906414551",334,59,184,254,"-0.10043403746491275,0.49495767021285575,-0.14337977127983403",184,"0.09948789533259128,0.47503830359136323,-0.601955130836429",158,238,1.9798661000004358
Pri_ET_Study1_1,M,0/0/1900,2022-06-21_15h17.25.968,12,test,Prioritise1,0,triangle,cross,circle,square,"1.0,-0.17339639938985352,0.2442586263282529","1.0,-0.10580765013847959,-0.9756165541078137","0.38995744222104256,0.31083082350540914,0.6645497918058341","-0.15325530146069954,0.47850880592239364,0.23567289266690317",332,43,263,210,"1.0,-0.17339639938985352,0.2442586263282529",332,"1.0,-0.18672585607811187,0.21894575397790916",334,96,4.083141199999773
Pri_ET_Study1_1,M,0/0/1900,2022-06-21_15h17.25.968,13,test,Prioritise4,3,square,triangle,circle,cross,"-0.12538192785381974,0.49466166942996614,-0.0651744334368548","1.0,0.0885108071490186,-1.0","0.5691306813430501,0.3551652128948415,-1.0","-0.045760705841983884,0.4412666063320212,0.45569155140365925",189,69,115,229,"-0.045760705841983884,0.4412666063320212,0.45569155140365925",229,"-0.12881863109484093,0.46745492896353924,0.32362925960524147",217,11,1.9738964999996824
Pri_ET_Study1_1,M,0/0/1900,2022-06-21_15h17.25.968,14,test,Prioritise3,2,circle,cross,square,triangle,"-0.04273264564935253,0.4921547641531523,-0.29008164886068233","0.35978173682339754,0.41977397962065344,-1.0","0.6517915958318632,0.21196052870658733,0.661939301509457","0.04661056885000425,0.4151827959781793,0.5366388806382338",175,133,280,238,"0.6517915958318632,0.21196052870658733,0.661939301509457",280,"0.43579397082986615,0.29501209376045523,0.6694809165992386",266,79,2.3035685999993802
Pri_ET_Study1_1,M,0/0/1900,2022-06-21_15h17.25.968,15,test,Prioritise2,0,circle,square,cross,triangle,"1.0,-0.15960027999342463,0.2690977661520819","0.35968141037855483,0.3209804608831912,0.6599831247203418","0.23950483221035568,0.4487573681220651,-1.0","1.0,-0.08353952619481586,-1.0",330,261,144,46,"1.0,-0.15960027999342463,0.2690977661520819",330,"1.0,-0.10844910144201803,0.3519141850209708",323,291,2.3940478000004077
Pri_ET_Study1_1,M,0/0/1900,2022-06-21_15h17.25.968,16,test,Prioritise3,0,square,cross,triangle,circle,"1.0,-0.12042756170577695,-0.8836340589512358","1.0,-0.27259515439613147,-0.011730747350127468","-0.04985376064386149,0.4926777683571715,-0.2733707743273047","0.09441071644993415,0.40170970408167506,0.5670564126145141",41,351,176,242,"1.0,-0.12042756170577695,-0.8836340589512358",41,"0.011345098196205106,0.4870029319956142,-0.41073039696963887",168,150,2.0580485999998928
Pri_ET_Study1_1,M,0/0/1900,2022-06-21_15h17.25.968,17,test,Prioritise3,2,triangle,square,cross,circle,"0.8602068900008202,0.11507220116757,0.6052161878467197","0.19781922438295352,0.4574422518266765,-0.8818361039644314","0.7836643519746782,0.2678576623980824,-1.0","1.0,-0.2692625012388049,0.0024658652101630096",294,148,97,350,"0.7836643519746782,0.2678576623980824,-1.0",97,"0.911575527904773,0.20327130372654878,-1.0",86,14,2.1625390000008338
Pri_ET_Study1_1,M,0/0/1900,2022-06-21_15h17.25.968,18,test,Prioritise3,2,triangle,circle,square,cross,"-0.1598212484830719,0.4866460428277808,0.1409432704458322","1.0,-0.17339639938985352,0.2442586263282529","0.21850949126575658,0.4532202130288874,-0.9933869065076532","1.0,0.03716450464441401,-1.0",203,332,146,62,"0.21850949126575658,0.4532202130288874,-0.9933869065076532",146,"0.1377313063497616,0.46869198128419454,-0.6923217342230605",154,321,2.4360500000002503
Pri_ET_Study1_1,M,0/0/1900,2022-06-21_15h17.25.968,19,test,Prioritise2,0,triangle,circle,cross,square,"1.0,-0.17339639938985352,0.2442586263282529","1.0,0.08129056571751603,-1.0","-0.028015013033697245,0.49094955428922593,-0.32385780920023366","0.38995744222104256,0.31083082350540914,0.6645497918058341",332,68,173,263,"1.0,-0.17339639938985352,0.2442586263282529",332,"1.0,-0.07007995956776203,0.4066709204115653",318,263,3.0006193999997777
Pri_ET_Study1_1,M,0/0/1900,2022-06-21_15h17.25.968,20,test,NoPrioritise,2,circle,triangle,square,cross,"0.04521328814621106,0.4828757040428189,-0.4835461552047625","1.0,0.06672643376273091,-1.0","0.18599750731146814,0.3752337008299145,0.6114718629309206","1.0,-0.15254529173699993,0.2813312795320311",164,66,249,329,"0.18599750731146814,0.3752337008299145,0.6114718629309206",249,"0.14752787305018233,0.4669625621869047,-0.7174796825499677",153,11,3.694713699998829
Pri_ET_Study1_1,M,0/0/1900,2022-06-21_15h17.25.968,21,test,Prioritise2,1,triangle,square,circle,cross,"0.8885895249151152,0.10029123080933622,0.593298310174416","1.0,0.09568719202827336,-1.0","-0.06359610428535867,0.4935649245563736,-0.24027710533734647","-0.12384754992127334,0.4656289401720195,0.3355818842165046",296,70,178,218,"1.0,0.09568719202827336,-1.0",70,"0.15741439024530024,0.4651753747362595,-0.7441898531558468",152,276,3.0951740000000427
Pri_ET_Study1_1,M,0/0/1900,2022-06-21_15h17.25.968,22,test,Prioritise2,2,triangle,circle,square,cross,"1.0,0.14454808295369936,-1.0","1.0,-0.07783297952557244,0.3960373748090056","0.1673887875274096,0.46333008938060627,-0.7729226224565875","0.10691635848548953,0.39815526341168916,0.5740986907036785",77,319,151,243,"0.1673887875274096,0.46333008938060627,-0.7729226224565875",151,"1.0,-0.09100024043058197,-1.0",45,187,3.530225000000428
Pri_ET_Study1_1,M,0/0/1900,2022-06-21_15h17.25.968,23,test,Prioritise4,2,triangle,circle,cross,square,"0.058211064666331636,0.41192535001918484,0.5445760826660213","1.0,-0.24898244687401672,0.0724226931177736","0.697563521415238,0.19227379976898162,0.6538323072937366","0.4981526525436166,0.3791643150394166,-1.0",239,345,283,121,"0.697563521415238,0.19227379976898162,0.6538323072937366",283,"1.0,-0.0855518419522695,0.38524161028667625",320,252,2.06366639999942
Pri_ET_Study1_1,M,0/0/1900,2022-06-21_15h17.25.968,24,test,NoPrioritise,2,triangle,square,circle,cross,"1.0,-0.2133971103908915,-0.5647212078646006","-0.1582066093163167,0.48234509352938293,0.19584550247902222","0.28235212283095645,0.4390974279014652,-1.0","0.9229356114863154,0.19699631777014193,-1.0",27,207,140,85,"0.28235212283095645,0.4390974279014652,-1.0",140,"1.0,-0.24513616553833184,-0.4641238358039159",21,254,2.3843360000009852
Pri_ET_Study1_1,M,0/0/1900,2022-06-21_15h17.25.968,25,test,Prioritise3,3,square,triangle,cross,circle,"0.9303101871846857,0.07776559495072588,0.5737236459068971","-0.07020697204541848,0.49392917223661503,-0.22388609625324785","0.8189948021797893,0.2510686603392729,-1.0","1.0,-0.060989074760531836,-1.0",299,179,94,49,"1.0,-0.060989074760531836,-1.0",49,"0.1774490411200258,0.4614263698132157,-0.8044096137074778",150,274,2.395114699998885
Pri_ET_Study1_1,M,0/0/1900,2022-06-21_15h17.25.968,26,test,NoPrioritise,3,square,cross,triangle,circle,"0.02803139784776887,0.4850479085911541,-0.44669070010662637","1.0,-0.10580765013847959,-0.9756165541078137","0.6885060196604067,0.3095143481419429,-1.0","0.8458569493622168,0.12238552790175761,0.6108291411981881",166,43,105,293,"0.8458569493622168,0.12238552790175761,0.6108291411981881",293,"1.0,-0.060989074760531836,-1.0",49,162,2.993365199999971
Pri_ET_Study1_1,M,0/0/1900,2022-06-21_15h17.25.968,27,test,NoPrioritise,2,square,circle,triangle,cross,"0.011345098196205106,0.4870029319956142,-0.41073039696963887","1.0,-0.23930972970484676,0.09987881270213972","1.0,0.14454808295369936,-1.0","-0.15325530146069954,0.47850880592239364,0.23567289266690317",168,343,77,210,"1.0,0.14454808295369936,-1.0",77,"0.04521328814621106,0.4828757040428189,-0.4835461552047625",164,267,3.045052899999064
Pri_ET_Study1_1,M,0/0/1900,2022-06-21_15h17.25.968,28,test,Prioritise1,0,square,circle,cross,triangle,"-0.1334211421392112,0.46921826779504494,0.31151742599586085","0.1673887875274096,0.46333008938060627,-0.7729226224565875","1.0,-0.0932311933171065,0.374286934875081","0.32969209843730707,0.3308126345090221,0.6543985772501693",216,151,321,259,"-0.1334211421392112,0.46921826779504494,0.31151742599586085",216,"-0.004817967995419115,0.4887422579776717,-0.37551595656205394",170,253,1.7779372000004514
Pri_ET_Study1_1,M,0/0/1900,2022-06-21_15h17.25.968,29,test,Prioritise2,3,square,cross,circle,triangle,"0.8072476110492377,0.25673500061136667,-1.0","0.7127176267031001,0.18557291042394586,0.6506302425082333","-0.1415152911985038,0.4725588943334964,0.2868282896334675","1.0,-0.24425036060701033,0.08619108045783674",95,284,214,344,"1.0,-0.24425036060701033,0.08619108045783674",344,"0.3485477954945324,0.4227267056127266,-1.0",134,127,4.05521040000167
Pri_ET_Study1_1,M,0/0/1900,2022-06-21_15h17.25.968,30,test,NoPrioritise,2,cross,triangle,square,circle,"1.0,-0.21761393967782516,0.1537648375256555","-0.15936350859590664,0.487578374203653,0.1269149288768463","0.4665589352747248,0.2840716923699367,0.6714844115718321","1.0,-0.23006636068103248,-0.5135224369802548",339,202,268,24,"0.4665589352747248,0.2840716923699367,0.6714844115718321",268,"1.0,-0.06229796743051119,0.4171389626044979",317,211,2.565777600000729
Pri_ET_Study1_1,M,0/0/1900,2022-06-21_15h17.25.968,31,test,Prioritise4,1,circle,triangle,cross,square,"1.0,-0.04666697700988032,0.4375655321668761","-0.15325530146069954,0.47850880592239364,0.23567289266690317","1.0,-0.2812391217555803,-0.30713162009795525","0.854028730639278,0.2336538600688729,-1.0",315,210,11,91,"-0.15325530146069954,0.47850880592239364,0.23567289266690317",210,"1.0,0.023895135487088437,0.520455959599228",306,254,3.4213325000000623
Pri_ET_Study1_1,M,0/0/1900,2022-06-21_15h17.25.968,32,test,NoPrioritise,2,square,cross,circle,triangle,"0.18599750731146814,0.3752337008299145,0.6114718629309206","-0.06359610428535867,0.4935649245563736,-0.24027710533734647","1.0,-0.2914084206358549,-0.1716625835351976","0.8771865507724368,0.22170185938115816,-1.0",249,178,2,89,"1.0,-0.2914084206358549,-0.1716625835351976",2,"0.7578023835242338,0.165070026077772,0.63954193062201",287,32,3.069299400000091
Pri_ET_Study1_1,M,0/0/1900,2022-06-21_15h17.25.968,33,test,Prioritise1,1,circle,square,triangle,cross,"1.0,-0.20752138035248524,-0.5823144238115788","-0.10032491436032498,0.45768874039972984,0.3817396096664756","1.0,-0.15960027999342463,0.2690977661520819","0.3262451978832188,0.42843842117143094,-1.0",28,222,330,136,"-0.10032491436032498,0.45768874039972984,0.3817396096664756",222,"0.03525654226328623,0.4183671124064994,0.5284836519992187",237,109,4.566528600000311
Pri_ET_Study1_1,M,0/0/1900,2022-06-21_15h17.25.968,34,test,Prioritise4,1,cross,triangle,circle,square,"1.0,-0.11314379054822865,-0.9277147292103822","1.0,-0.07783297952557244,0.3960373748090056","0.1673887875274096,0.46333008938060627,-0.7729226224565875","0.5593128013847881,0.24938009178326226,0.6713213889936891",42,319,151,274,"1.0,-0.07783297952557244,0.3960373748090056",319,"1.0,-0.10580765013847959,-0.9756165541078137",43,168,2.800433399999747
Pri_ET_Study1_1,M,0/0/1900,2022-06-21_15h17.25.968,35,test,Prioritise1,1,square,triangle,circle,cross,"0.9709143462906737,0.05487098646765176,0.5521665648538059","1.0,0.04460337025072447,-1.0","0.3937919637711427,0.41052389502637143,-1.0","0.2419946445565604,0.35840841428502257,0.6316066564714324",302,63,130,253,"1.0,0.04460337025072447,-1.0",63,"0.9566713411825642,0.17778746275501622,-1.0",82,156,4.013707000000068
Pri_ET_Study1_1,M,0/0/1900,2022-06-21_15h17.25.968,36,test,Prioritise1,0,cross,circle,triangle,square,"1.0,-0.2914084206358549,-0.1716625835351976","1.0,0.1377261376429495,-1.0","0.18759316868675757,0.45946387343509576,-0.8398972692549822","-0.1598212484830719,0.4866460428277808,0.1409432704458322",2,76,149,203,"1.0,-0.2914084206358549,-0.1716625835351976",2,"1.0,-0.2759589912597996,-0.3378595329546661",13,263,2.430063200001314
Pri_ET_Study1_1,M,0/0/1900,2022-06-21_15h17.25.968,37,test,Prioritise1,3,cross,square,circle,triangle,"-0.11109230792064029,0.494998675286374,-0.11182488810932678","1.0,-0.2787294505909397,-0.3224626175099854","0.3937919637711427,0.41052389502637143,-1.0","1.0,-0.17339639938985352,0.2442586263282529",186,12,130,332,"1.0,-0.17339639938985352,0.2442586263282529",332,"0.11962807502985351,0.3945255124543332,0.5809118383777745",244,352,3.4899380000006204
Pri_ET_Study1_1,M,0/0/1900,2022-06-21_15h17.25.968,38,test,NoPrioritise,1,triangle,square,cross,circle,"1.0,-0.023115205136178596,-1.0","0.4282253351913974,0.40067838587068505,-1.0","1.0,-0.18672585607811187,0.21894575397790916","-0.06359610428535867,0.4935649245563736,-0.24027710533734647",54,127,334,178,"0.4282253351913974,0.40067838587068505,-1.0",127,"0.07186027412725471,0.47920645949573504,-0.5409731165987569",161,100,2.3429840999997396
Pri_ET_Study1_1,M,0/0/1900,2022-06-21_15h17.25.968,39,test,Prioritise4,3,triangle,circle,cross,square,"-0.03665861455697994,0.4386499069954206,0.4655003413302212","1.0,-0.291416597096681,-0.18651092035548889","-0.06359610428535867,0.4935649245563736,-0.24027710533734647","0.854028730639278,0.2336538600688729,-1.0",230,3,178,91,"0.854028730639278,0.2336538600688729,-1.0",91,"1.0,-0.09842467873037941,-1.0",44,177,2.319861399999354
Pri_ET_Study1_1,M,0/0/1900,2022-06-21_15h17.25.968,40,test,Prioritise2,3,cross,circle,square,triangle,"0.911575527904773,0.20327130372654878,-1.0","1.0,-0.06229796743051119,0.4171389626044979","1.0,-0.2885749142137033,-0.24639910949319843","-0.09478536258948067,0.49485771099788134,-0.15929400236046964",86,317,7,183,"-0.09478536258948067,0.49485771099788134,-0.15929400236046964",183,"1.0,0.10281785561567158,-1.0",71,284,2.486726000000999
Pri_ET_Study1_1,M,0/0/1900,2022-06-21_15h17.25.968,41,test,Prioritise3,1,cross,circle,triangle,square,"0.15891936573799903,0.3831804895186659,0.5999565135488085","0.9165223056430671,0.08531838961047389,0.5804719469242157","1.0,0.10990102188412854,-1.0","1.0,-0.18904346603826983,-0.637249894721835",247,298,72,31,"0.9165223056430671,0.08531838961047389,0.5804719469242157",298,"0.911575527904773,0.20327130372654878,-1.0",86,82,3.029715799999394
Pri_ET_Study1_1,M,0/0/1900,2022-06-21_15h17.25.968,42,test,Prioritise2,3,cross,square,triangle,circle,"-0.017538974095646753,0.43320838581829424,0.48452289736445553","1.0,0.023895135487088437,0.520455959599228","1.0,-0.2618543528600009,0.0306611530728087","-0.1336957186097738,0.49417000388378884,-0.03453353894846056",232,306,348,191,"-0.1336957186097738,0.49417000388378884,-0.03453353894846056",191,"0.09017416231209929,0.4764835565228893,-0.581140049938324",159,180,2.5240329000007478
Pri_ET_Study1_1,M,0/0/1900,2022-06-21_15h17.25.968,43,test,Prioritise4,3,triangle,circle,square,cross,"1.0,-0.2117453636986133,0.16700499532847024","1.0,0.11693500061052231,-1.0","-0.1481252589400609,0.4756545429797898,0.26153874370652797","0.5217173616076898,0.3714436344565344,-1.0",338,73,212,119,"0.5217173616076898,0.3714436344565344,-1.0",119,"0.1774490411200258,0.4614263698132157,-0.8044096137074778",150,88,2.0568478999994113
Pri_ET_Study1_1,M,0/0/1900,2022-06-21_15h17.25.968,44,test,Prioritise1,0,circle,square,triangle,cross,"0.6823545184579658,0.19890605819631269,0.6567852503614975","0.14752787305018233,0.4669625621869047,-0.7174796825499677","0.7004475934634664,0.30455679594870433,-1.0","1.0,-0.24030349193845646,-0.4804258498410512",282,153,104,22,"0.6823545184579658,0.19890605819631269,0.6567852503614975",282,"0.8744524420551003,0.1077067653533772,0.5993718879433354",295,265,2.5425437000012607
Pri_ET_Study1_1,M,0/0/1900,2022-06-21_15h17.25.968,45,test,NoPrioritise,0,cross,circle,square,triangle,"0.8423878648894922,0.2395276862660105,-1.0","1.0,-0.289651960671372,-0.12741280502186536","0.35968141037855483,0.3209804608831912,0.6599831247203418","-0.15745197328482874,0.48927392525561153,0.09851328502402845",92,359,261,200,"0.8423878648894922,0.2395276862660105,-1.0",92,"0.854028730639278,0.2336538600688729,-1.0",91,9,2.3107741000003443
Pri_ET_Study1_1,M,0/0/1900,2022-06-21_15h17.25.968,46,test,Prioritise1,3,cross,triangle,square,circle,"1.0,-0.2853220527670477,-0.0836186653125478","0.09948789533259128,0.47503830359136323,-0.601955130836429","0.7954699681646173,0.26233143705175754,-1.0","0.024156992038590452,0.42147876676365525,0.5201127943356356",356,158,96,236,"0.024156992038590452,0.42147876676365525,0.5201127943356356",236,"0.7481042841002781,0.28401253410301863,-1.0",100,287,2.243927100000292
Pri_ET_Study1_1,M,0/0/1900,2022-06-21_15h17.25.968,47,test,NoPrioritise,0,triangle,square,cross,circle,"1.0,-0.0855518419522695,0.38524161028667625","-0.1598212484830719,0.4866460428277808,0.1409432704458322","1.0,0.1377261376429495,-1.0","1.0,-0.1558548551326704,-0.7405909184559469",320,203,76,36,"1.0,-0.0855518419522695,0.38524161028667625",320,"1.0,-0.1308360377071882,0.3172469791017578",326,49,2.2976326999996672
Pri_ET_Study1_1,M,0/0/1900,2022-06-21_15h17.25.968,48,test,Prioritise2,0,circle,square,cross,triangle,"0.1774490411200258,0.4614263698132157,-0.8044096137074778","0.6407010103455535,0.32862970770224886,-1.0","0.5438403016684124,0.25535465854340766,0.6719910833849003","-0.03665861455697994,0.4386499069954206,0.4655003413302212",150,109,273,230,"0.1774490411200258,0.4614263698132157,-0.8044096137074778",150,"0.22896995211020998,0.45101907426419996,-1.0",145,240,2.2237628000002587
Pri_ET_Study1_1,M,0/0/1900,2022-06-21_15h17.25.968,49,test,NoPrioritise,1,triangle,square,cross,circle,"1.0,-0.2618543528600009,0.0306611530728087","1.0,-0.12042756170577695,-0.8836340589512358","0.38995744222104256,0.31083082350540914,0.6645497918058341","0.3937919637711427,0.41052389502637143,-1.0",348,41,263,130,"1.0,-0.12042756170577695,-0.8836340589512358",41,"1.0,-0.20149881210311282,-0.6002331830476271",29,174,2.117999400001281
Pri_ET_Study1_1,M,0/0/1900,2022-06-21_15h17.25.968,50,test,Prioritise4,3,cross,circle,triangle,square,"1.0,0.09568719202827336,-1.0","1.0,-0.28715474606071,-0.26149890951485844","0.09017416231209929,0.4764835565228893,-0.581140049938324","-0.0789607698268403,0.4510515800167316,0.41453817725242015",70,8,159,225,"-0.0789607698268403,0.4510515800167316,0.41453817725242015",225,"-0.007535811164553707,0.4303825516742039,0.4937312314227156",233,326,2.7151568999997835
Pri_ET_Study1_1,M,0/0/1900,2022-06-21_15h17.25.968,51,test,Prioritise3,0,circle,square,cross,triangle,"1.0,-0.265680167273015,0.01659727634298691","0.002753009035763032,0.42748599986642954,0.5027340537090634","0.1184165720364383,0.4719787961363635,-0.6454646836219573","1.0,-0.16269839246793216,-0.7181852224820324",349,234,156,35,"1.0,-0.265680167273015,0.01659727634298691",349,"0.8886984490493344,0.21562474761751438,-1.0",88,358,2.2111987000007503
Pri_ET_Study1_1,M,0/0/1900,2022-06-21_15h17.25.968,52,test,Prioritise2,2,circle,square,cross,triangle,"1.0,-0.20571451687417974,0.18014638001872707","-0.09355100115627091,0.45554214766479406,0.3928507547204487","1.0,-0.2583995670372059,-0.4160170008955538","-0.03545149328753128,0.4915787209123279,-0.3069086161051545",337,223,18,174,"1.0,-0.2583995670372059,-0.4160170008955538",18,"0.10890282843090082,0.4735368131811257,-0.6233623294930688",157,172,2.440824799999973
Pri_ET_Study1_1,M,0/0/1900,2022-06-21_15h17.25.968,53,test,Prioritise3,1,triangle,square,circle,cross,"1.0,-0.2352776592018201,-0.4968859262116322","0.8022226392771252,0.14399413187212562,0.6262603189685363","0.38240568475417525,0.4136729392938614,-1.0","0.03525654226328623,0.4183671124064994,0.5284836519992187",23,290,131,237,"0.8022226392771252,0.14399413187212562,0.6262603189685363",290,"1.0,-0.023115205136178596,-1.0",54,47,2.7043843000010384
Pri_ET_Study1_1,M,0/0/1900,2022-06-21_15h17.25.968,54,test,Prioritise4,2,cross,circle,square,triangle,"0.8602068900008202,0.11507220116757,0.6052161878467197","0.4864131283203974,0.38292092452220805,-1.0","1.0,0.07402842417913646,-1.0","1.0,-0.21911833444213913,-0.5474132739956148",294,122,67,26,"1.0,0.07402842417913646,-1.0",67,"0.854028730639278,0.2336538600688729,-1.0",91,351,3.1790543000006437
Pri_ET_Study1_1,M,0/0/1900,2022-06-21_15h17.25.968,55,test,Prioritise1,0,circle,triangle,cross,square,"0.5810306884554026,0.3509198779468534,-1.0","-0.08288077159008311,0.49449913405181634,-0.1914000323192474","1.0,-0.223312447401106,0.14042906010430367","1.0,-0.007959551777363516,-1.0",114,181,340,56,"0.5810306884554026,0.3509198779468534,-1.0",114,"0.7836643519746782,0.2678576623980824,-1.0",97,217,3.0787760999992315
Pri_ET_Study1_1,M,0/0/1900,2022-06-21_15h17.25.968,56,test,Prioritise1,0,square,triangle,cross,circle,"0.43579397082986615,0.29501209376045523,0.6694809165992386","0.25011230249462657,0.4464347244570299,-1.0","0.9001622899209403,0.20948101299508481,-1.0","1.0,-0.2618543528600009,0.0306611530728087",266,143,87,348,"0.43579397082986615,0.29501209376045523,0.6694809165992386",266,"0.4204673865307198,0.3003640950728248,0.6680936776579738",265,74,3.1808343999982753
Pri_ET_Study1_1,M,0/0/1900,2022-06-21_15h17.25.968,57,test,Prioritise3,0,cross,square,circle,triangle,"1.0,0.12391818455152381,-1.0","-0.05454842094763246,0.44381461100324726,0.4456881091586087","-0.10587186235375057,0.4950046804635242,-0.12755688133261178","0.7428418032534498,0.17196979648312705,0.6434837115546581",74,228,185,286,"1.0,0.12391818455152381,-1.0",74,"1.0,0.01469043779870538,-1.0",59,99,4.671368600000278
Pri_ET_Study1_1,M,0/0/1900,2022-06-21_15h17.25.968,58,test,Prioritise2,1,cross,triangle,circle,square,"1.0,-0.21761393967782516,0.1537648375256555","0.9026141269879491,0.09282770385166228,0.5869975937203944","1.0,-0.12765325079304635,-0.8480385611780058","0.6287517000804042,0.333230015934751,-1.0",339,297,40,110,"0.9026141269879491,0.09282770385166228,0.5869975937203944",297,"1.0,-0.07783297952557244,0.3960373748090056",319,132,1.8555010999989463
Pri_ET_Study1_1,M,0/0/1900,2022-06-21_15h17.25.968,59,test,Prioritise2,0,cross,triangle,square,circle,"0.854028730639278,0.2336538600688729,-1.0","-0.10043403746491275,0.49495767021285575,-0.14337977127983403","1.0,-0.045861603138592444,-1.0","0.35968141037855483,0.3209804608831912,0.6599831247203418",91,184,51,261,"0.854028730639278,0.2336538600688729,-1.0",91,"0.14752787305018233,0.4669625621869047,-0.7174796825499677",153,95,2.39561649999996
Pri_ET_Study1_1,M,0/0/1900,2022-06-21_15h17.25.968,60,test,Prioritise1,2,triangle,circle,square,cross,"0.4282253351913974,0.40067838587068505,-1.0","1.0,-0.223312447401106,0.14042906010430367","1.0,-0.19533700364355222,-0.6185256211936343","1.0,0.09568719202827336,-1.0",127,340,30,70,"1.0,-0.19533700364355222,-0.6185256211936343",30,"1.0,-0.14190666083918357,-0.7896703829265752",38,140,2.1875943999984884
Pri_ET_Study1_1,M,0/0/1900,2022-06-21_15h17.25.968,61,test,Prioritise1,1,triangle,cross,circle,square,"1.0,-0.22467733398512213,-0.5303566464837048","0.2715377535601935,0.44160513045338035,-1.0","-0.1481252589400609,0.4756545429797898,0.26153874370652797","0.9303101871846857,0.07776559495072588,0.5737236459068971",25,141,212,299,"0.2715377535601935,0.44160513045338035,-1.0",141,"0.15741439024530024,0.4651753747362595,-0.7441898531558468",152,134,2.3439216000006127
Pri_ET_Study1_1,M,0/0/1900,2022-06-21_15h17.25.968,62,test,Prioritise3,1,cross,circle,triangle,square,"0.6885060196604067,0.3095143481419429,-1.0","-0.11850987372908683,0.4637398184337027,0.34737226103556385","1.0,-0.19952917352700617,0.19318579588388318","0.19781922438295352,0.4574422518266765,-0.8818361039644314",105,219,336,148,"-0.11850987372908683,0.4637398184337027,0.34737226103556385",219,"-0.07115460775268467,0.4487065849390661,0.42510855757080535",226,151,3.1134297999997216
Pri_ET_Study1_1,M,0/0/1900,2022-06-21_15h17.25.968,63,test,Prioritise2,3,cross,triangle,circle,square,"-0.1160886962144162,0.49493957268076216,-0.09618366371381681","0.4051864188365102,0.30563705046778256,0.6664498358678796","1.0,-0.2583995670372059,-0.4160170008955538","0.6765582342033039,0.31440040312493167,-1.0",187,264,18,106,"0.6765582342033039,0.31440040312493167,-1.0",106,"0.2715377535601935,0.44160513045338035,-1.0",141,21,3.281098999999813
Pri_ET_Study1_1,M,0/0/1900,2022-06-21_15h17.25.968,64,test,NoPrioritise,0,cross,circle,triangle,square,"-0.15857178695416452,0.48845422840718666,0.1127707600476957","1.0,-0.17339639938985352,0.2442586263282529","0.7127176267031001,0.18557291042394586,0.6506302425082333","1.0,-0.14190666083918357,-0.7896703829265752",201,332,284,38,"-0.15857178695416452,0.48845422840718666,0.1127707600476957",201,"0.002753009035763032,0.42748599986642954,0.5027340537090634",234,91,2.8971136000000115
Pri_ET_Study1_1,M,0/0/1900,2022-06-21_15h17.25.968,65,test,Prioritise3,2,cross,triangle,square,circle,"1.0,-0.16655302622891022,0.25673909055504174","0.9454860823634645,0.18425356693025585,-1.0","-0.06301515924349677,0.44629443292921844,0.43549282839157066","0.09017416231209929,0.4764835565228893,-0.581140049938324",331,83,227,159,"-0.06301515924349677,0.44629443292921844,0.43549282839157066",227,"-0.03665861455697994,0.4386499069954206,0.4655003413302212",230,335,2.2137849000009737
Pri_ET_Study1_1,M,0/0/1900,2022-06-21_15h17.25.968,66,test,Prioritise3,3,cross,square,circle,triangle,"0.0809641014742315,0.4778728517952051,-0.560834903418019","1.0,0.023895135487088437,0.520455959599228","1.0,-0.2905679542092485,-0.21635494529981825","0.4204673865307198,0.3003640950728248,0.6680936776579738",160,306,5,265,"0.4204673865307198,0.3003640950728248,0.6680936776579738",265,"-0.017538974095646753,0.43320838581829424,0.48452289736445553",232,31,3.1119751000005635
Pri_ET_Study1_1,M,0/0/1900,2022-06-21_15h17.25.968,67,test,NoPrioritise,0,circle,cross,square,triangle,"0.7718332302050808,0.2733134055615505,-1.0","0.8885895249151152,0.10029123080933622,0.593298310174416","-0.12538192785381974,0.49466166942996614,-0.0651744334368548","1.0,-0.2117453636986133,0.16700499532847024",98,296,189,338,"0.7718332302050808,0.2733134055615505,-1.0",98,"1.0,0.04460337025072447,-1.0",63,221,2.2953121999998984
Pri_ET_Study1_1,M,0/0/1900,2022-06-21_15h17.25.968,68,test,NoPrioritise,1,square,triangle,cross,circle,"0.011345098196205106,0.4870029319956142,-0.41073039696963887","0.013319861281873457,0.4245182348375207,0.5115287599103473","1.0,-0.24898244687401672,0.0724226931177736","1.0,-0.20149881210311282,-0.6002331830476271",168,235,345,29,"0.013319861281873457,0.4245182348375207,0.5115287599103473",235,"0.9454860823634645,0.18425356693025585,-1.0",83,156,2.841975099998308
Pri_ET_Study1_1,M,0/0/1900,2022-06-21_15h17.25.968,69,test,Prioritise4,1,cross,triangle,circle,square,"0.7004475934634664,0.30455679594870433,-1.0","1.0,-0.2117453636986133,0.16700499532847024","0.011345098196205106,0.4870029319956142,-0.41073039696963887","-0.1415152911985038,0.4725588943334964,0.2868282896334675",104,338,168,214,"1.0,-0.2117453636986133,0.16700499532847024",338,"-0.14500574250124976,0.47413711311303364,0.2742570559677715",213,46,2.191976199999772
Pri_ET_Study1_1,M,0/0/1900,2022-06-21_15h17.25.968,70,test,Prioritise3,1,circle,square,triangle,cross,"1.0,-0.2885749142137033,-0.24639910949319843","1.0,-0.04666697700988032,0.4375655321668761","0.31518019558100097,0.43119815975599396,-1.0","0.058211064666331636,0.41192535001918484,0.5445760826660213",7,315,137,239,"1.0,-0.04666697700988032,0.4375655321668761",315,"-0.017538974095646753,0.43320838581829424,0.48452289736445553",232,46,3.2872768999986874
Pri_ET_Study1_1,M,0/0/1900,2022-06-21_15h17.25.968,71,test,Prioritise2,2,circle,triangle,cross,square,"0.8771865507724368,0.22170185938115816,-1.0","1.0,-0.14190666083918357,-0.7896703829265752","0.8744524420551003,0.1077067653533772,0.5993718879433354","1.0,-0.2810383691272422,-0.05469022987079308",89,38,295,354,"0.8744524420551003,0.1077067653533772,0.5993718879433354",295,"0.0809641014742315,0.4778728517952051,-0.560834903418019",160,127,2.9611606000016764
Pri_ET_Study1_1,M,0/0/1900,2022-06-21_15h17.25.968,72,test,Prioritise2,0,circle,cross,square,triangle,"0.02803139784776887,0.4850479085911541,-0.44669070010662637","0.3000437839717358,0.34032750492681907,0.6478023910819077","0.5929450132200651,0.3466038519932022,-1.0","1.0,-0.20752138035248524,-0.5823144238115788",166,257,113,28,"0.02803139784776887,0.4850479085911541,-0.44669070010662637",166,"0.32969209843730707,0.3308126345090221,0.6543985772501693",259,203,3.099362500001007
Pri_ET_Study1_1,M,0/0/1900,2022-06-21_15h17.25.968,73,test,Prioritise3,2,square,triangle,cross,circle,"1.0,-0.23930972970484676,0.09987881270213972","-0.15425303278284086,0.49074605836511664,0.06966808771232391","0.8423878648894922,0.2395276862660105,-1.0","0.2607905457923898,0.44405077031286466,-1.0",343,198,92,142,"0.8423878648894922,0.2395276862660105,-1.0",92,"0.8423878648894922,0.2395276862660105,-1.0",92,56,2.44843740000033
Pri_ET_Study1_1,M,0/0/1900,2022-06-21_15h17.25.968,74,test,Prioritise4,1,square,circle,cross,triangle,"-0.12538192785381974,0.49466166942996614,-0.0651744334368548","0.9229356114863154,0.19699631777014193,-1.0","0.10691635848548953,0.39815526341168916,0.5740986907036785","1.0,-0.2810383691272422,-0.05469022987079308",189,85,243,354,"0.9229356114863154,0.19699631777014193,-1.0",85,"0.911575527904773,0.20327130372654878,-1.0",86,347,2.6420985000004293
Pri_ET_Study1_1,M,0/0/1900,2022-06-21_15h17.25.968,75,test,Prioritise1,1,cross,circle,triangle,square,"0.10691635848548953,0.39815526341168916,0.5740986907036785","0.8022226392771252,0.14399413187212562,0.6262603189685363","0.7481042841002781,0.28401253410301863,-1.0","0.02803139784776887,0.4850479085911541,-0.44669070010662637",243,290,100,166,"0.8022226392771252,0.14399413187212562,0.6262603189685363",290,"-0.0789607698268403,0.4510515800167316,0.41453817725242015",225,175,2.837752699999328
Pri_ET_Study1_1,M,0/0/1900,2022-06-21_15h17.25.968,76,test,Prioritise2,2,circle,triangle,square,cross,"1.0,-0.030699357614306977,-1.0","1.0,-0.2810383691272422,-0.05469022987079308","-0.1160886962144162,0.49493957268076216,-0.09618366371381681","0.35968141037855483,0.3209804608831912,0.6599831247203418",53,354,187,261,"-0.1160886962144162,0.49493957268076216,-0.09618366371381681",187,"-0.06301515924349677,0.44629443292921844,0.43549282839157066",227,26,3.467481100000441
Pri_ET_Study1_1,M,0/0/1900,2022-06-21_15h17.25.968,77,test,Prioritise4,1,circle,cross,square,triangle,"1.0,0.05938674364207741,-1.0","0.557247182986663,0.35934004439537626,-1.0","1.0,-0.23416809090988489,0.11348302116348141","0.06286533759988822,0.4804846395944975,-0.5215000541421746",65,116,342,162,"0.557247182986663,0.35934004439537626,-1.0",116,"-0.03665861455697994,0.4386499069954206,0.4655003413302212",230,145,4.0432666999986395
Pri_ET_Study1_1,M,0/0/1900,2022-06-21_15h17.25.968,78,test,Prioritise2,2,circle,square,cross,triangle,"1.0,0.10990102188412854,-1.0","1.0,0.016090771115826907,0.5120159997035829","-0.137653653553384,0.47091943313012696,0.2992494234533911","0.28536486694739915,0.3449661378960809,0.6441272460635925",72,307,215,256,"-0.137653653553384,0.47091943313012696,0.2992494234533911",215,"1.0,-0.1453950522675579,0.29343624696038684",328,42,1.9581806999995024
Pri_ET_Study1_1,M,0/0/1900,2022-06-21_15h17.25.968,79,test,Prioritise3,0,cross,square,circle,triangle,"-0.10674528321075638,0.4597702151299572,0.3704541436797111","0.8771865507724368,0.22170185938115816,-1.0","0.6364477477613335,0.21838082541010184,0.6641383826852352","1.0,-0.2692625012388049,0.0024658652101630096",221,89,279,350,"-0.10674528321075638,0.4597702151299572,0.3704541436797111",221,"1.0,0.029697581538389972,-1.0",61,269,2.8870182000009663
Pri_ET_Study1_1,M,0/0/1900,2022-06-21_15h17.25.968,80,test,Prioritise3,1,circle,cross,triangle,square,"0.28536486694739915,0.3449661378960809,0.6441272460635925","0.2081252941518954,0.4553611512282272,-0.9356957589344492","1.0,-0.2288330890480459,0.12700076968242469","1.0,-0.2133971103908915,-0.5647212078646006",256,147,341,27,"0.2081252941518954,0.4553611512282272,-0.9356957589344492",147,"1.0,-0.07604755533137741,-1.0",47,97,2.2234055000008084
Pri_ET_Study1_1,M,0/0/1900,2022-06-21_15h17.25.968,81,test,Prioritise1,0,circle,square,triangle,cross,"1.0,-0.19533700364355222,-0.6185256211936343","1.0,0.10281785561567158,-1.0","1.0,-0.030978196634575572,0.4572913763932509","-0.14981892062729885,0.491997057231198,0.04039774195876733",30,71,313,196,"1.0,-0.19533700364355222,-0.6185256211936343",30,"1.0,-0.18262560807777894,-0.6564771422547051",32,25,2.8432369000001927
Pri_ET_Study1_1,M,0/0/1900,2022-06-21_15h17.25.968,82,test,Prioritise3,0,square,circle,cross,triangle,"-0.1334211421392112,0.46921826779504494,0.31151742599586085","1.0,-0.23006636068103248,-0.5135224369802548","0.984183681480933,0.0471694796759472,0.544551712303033","0.4981526525436166,0.3791643150394166,-1.0",216,24,303,121,"-0.1334211421392112,0.46921826779504494,0.31151742599586085",216,"-0.05454842094763246,0.44381461100324726,0.4456881091586087",228,141,3.3044656999991275
Pri_ET_Study1_1,M,0/0/1900,2022-06-21_15h17.25.968,83,test,Prioritise4,2,circle,square,triangle,cross,"0.41670369996421397,0.40402696808005323,-1.0","1.0,-0.015534070910116049,-1.0","1.0,-0.015267259554568757,0.4762913260168815","-0.07663707943429687,0.49424057193593485,-0.2075945922293636",128,55,311,180,"1.0,-0.015267259554568757,0.4762913260168815",311,"1.0,-0.06852917744512788,-1.0",48,206,2.6949625999986893
Pri_ET_Study1_1,M,0/0/1900,2022-06-21_15h17.25.968,84,test,Prioritise1,2,square,cross,triangle,circle,"-0.137653653553384,0.47091943313012696,0.2992494234533911","0.45139045294854396,0.393779284417197,-1.0","1.0,-0.10580765013847959,-0.9756165541078137","0.8602068900008202,0.11507220116757,0.6052161878467197",215,125,43,294,"1.0,-0.10580765013847959,-0.9756165541078137",43,"1.0,-0.09100024043058197,-1.0",45,91,3.623341900000014
Pri_ET_Study1_1,M,0/0/1900,2022-06-21_15h17.25.968,85,test,NoPrioritise,0,circle,cross,triangle,square,"1.0,-0.20149881210311282,-0.6002331830476271","0.4864131283203974,0.38292092452220805,-1.0","0.9788490541088481,0.1646703741338249,-1.0","1.0,-0.16655302622891022,0.25673909055504174",29,122,80,331,"1.0,-0.20149881210311282,-0.6002331830476271",29,"1.0,-0.18262560807777894,-0.6564771422547051",32,1,3.0946992999997747
Pri_ET_Study1_1,M,0/0/1900,2022-06-21_15h17.25.968,86,test,Prioritise4,0,triangle,circle,cross,square,"1.0,-0.24030349193845646,-0.4804258498410512","0.38240568475417525,0.4136729392938614,-1.0","0.8886984490493344,0.21562474761751438,-1.0","-0.15425303278284086,0.49074605836511664,0.06966808771232391",22,131,88,198,"1.0,-0.24030349193845646,-0.4804258498410512",22,"1.0,-0.26238457869240295,-0.4002073564444957",17,165,2.9151382000000012
Pri_ET_Study1_1,M,0/0/1900,2022-06-21_15h17.25.968,87,test,Prioritise2,1,circle,square,cross,triangle,"1.0,0.029697581538389972,-1.0","1.0,-0.2288330890480459,0.12700076968242469","0.4665589352747248,0.2840716923699367,0.6714844115718321","0.003196340864616065,0.48789947231709707,-0.3930376390559923",61,341,268,169,"1.0,-0.2288330890480459,0.12700076968242469",341,"1.0,-0.15254529173699993,0.2813312795320311",329,107,2.383136000000377
Pri_ET_Study1_1,M,0/0/1900,2022-06-21_15h17.25.968,88,test,Prioritise2,1,triangle,cross,circle,square,"0.7278119810668549,0.17880451220180715,0.6471802765379799","1.0,0.06672643376273091,-1.0","0.058211064666331636,0.41192535001918484,0.5445760826660213","-0.10587186235375057,0.4950046804635242,-0.12755688133261178",285,66,239,185,"1.0,0.06672643376273091,-1.0",66,"1.0,0.029697581538389972,-1.0",61,96,2.5772305999998935
Pri_ET_Study1_1,M,0/0/1900,2022-06-21_15h17.25.968,89,test,Prioritise4,0,triangle,square,cross,circle,"-0.020427730643879483,0.49026716567376205,-0.3409363637973366","0.9709143462906737,0.05487098646765176,0.5521665648538059","1.0,-0.20752138035248524,-0.5823144238115788","0.9342399836420399,0.1906568045828605,-1.0",172,302,28,84,"-0.020427730643879483,0.49026716567376205,-0.3409363637973366",172,"0.23950483221035568,0.4487573681220651,-1.0",144,299,2.554887600001166
Pri_ET_Study1_1,M,0/0/1900,2022-06-21_15h17.25.968,90,test,NoPrioritise,2,square,circle,cross,triangle,"-0.03665861455697994,0.4386499069954206,0.4655003413302212","0.1673887875274096,0.46333008938060627,-0.7729226224565875","0.7726890832158932,0.15810653737494773,0.6353563968956581","0.7004475934634664,0.30455679594870433,-1.0",230,151,288,104,"0.7726890832158932,0.15810653737494773,0.6353563968956581",288,"0.21850949126575658,0.4532202130288874,-0.9933869065076532",146,346,2.4789645000000746
Pri_ET_Study1_1,M,0/0/1900,2022-06-21_15h17.25.968,91,test,Prioritise4,1,square,circle,triangle,cross,"0.2715377535601935,0.44160513045338035,-1.0","0.1997782184249719,0.37114427631595914,0.6168699381761522","1.0,-0.10086551076024819,0.3631766774585774","0.9677931896988998,0.1712594071065523,-1.0",141,250,322,81,"0.1997782184249719,0.37114427631595914,0.6168699381761522",250,"0.08211922552252782,0.40518924666980105,0.5597871012004456",241,122,2.9134202000004734
Pri_ET_Study1_1,M,0/0/1900,2022-06-21_15h17.25.968,92,test,Prioritise2,3,cross,triangle,circle,square,"-0.017538974095646753,0.43320838581829424,0.48452289736445553","-0.07020697204541848,0.49392917223661503,-0.22388609625324785","0.45139045294854396,0.393779284417197,-1.0","1.0,-0.10580765013847959,-0.9756165541078137",232,179,125,43,"1.0,-0.10580765013847959,-0.9756165541078137",43,"-0.05454842094763246,0.44381461100324726,0.4456881091586087",228,254,2.968951600001674
Pri_ET_Study1_1,M,0/0/1900,2022-06-21_15h17.25.968,93,test,Prioritise3,1,triangle,square,cross,circle,"-0.14715582087117385,0.4925402828135286,0.025608434090147236","1.0,0.11693500061052231,-1.0","1.0,-0.10086551076024819,0.3631766774585774","1.0,-0.2787294505909397,-0.3224626175099854",195,73,322,12,"1.0,0.11693500061052231,-1.0",73,"1.0,0.029697581538389972,-1.0",61,128,2.994903600001635
Pri_ET_Study1_1,M,0/0/1900,2022-06-21_15h17.25.968,94,test,NoPrioritise,1,cross,circle,square,triangle,"0.04661056885000425,0.4151827959781793,0.5366388806382338","1.0,-0.030978196634575572,0.4572913763932509","0.35978173682339754,0.41977397962065344,-1.0","0.8307090529045498,0.2453327610063578,-1.0",238,313,133,93,"1.0,-0.030978196634575572,0.4572913763932509",313,"0.9454860823634645,0.18425356693025585,-1.0",83,293,2.2592012000004615
Pri_ET_Study1_1,M,0/0/1900,2022-06-21_15h17.25.968,95,test,Prioritise3,3,cross,square,triangle,circle,"0.3373683384989987,0.425614728337375,-1.0","-0.1582066093163167,0.48234509352938293,0.19584550247902222","0.32969209843730707,0.3308126345090221,0.6543985772501693","1.0,-0.045861603138592444,-1.0",135,207,259,51,"1.0,-0.045861603138592444,-1.0",51,"1.0,-0.19319706407583936,0.20612000948251996",335,195,3.2928279000007024
Pri_ET_Study1_1,M,0/0/1900,2022-06-21_15h17.25.968,96,test,Prioritise4,0,square,circle,triangle,cross,"0.25011230249462657,0.4464347244570299,-1.0","1.0,-0.13481497066722903,-0.8172789642511413","1.0,-0.2784883645829067,-0.04031082501765193","0.5593128013847881,0.24938009178326226,0.6713213889936891",143,39,353,274,"0.25011230249462657,0.4464347244570299,-1.0",143,"0.4819850074232215,0.2784837623913883,0.6721002952002628",269,230,3.041510399998515
Pri_ET_Study1_1,M,0/0/1900,2022-06-21_15h17.25.968,97,test,Prioritise4,3,circle,cross,square,triangle,"0.10890282843090082,0.4735368131811257,-0.6233623294930688","1.0,-0.06852917744512788,-1.0","1.0,-0.28715474606071,-0.26149890951485844","0.8022226392771252,0.14399413187212562,0.6262603189685363",157,48,8,290,"0.8022226392771252,0.14399413187212562,0.6262603189685363",290,"0.5593128013847881,0.24938009178326226,0.6713213889936891",274,29,2.006590999999389
Pri_ET_Study1_1,M,0/0/1900,2022-06-21_15h17.25.968,98,test,Prioritise3,0,circle,square,cross,triangle,"1.0,-0.28704790815198966,-0.09816451385922986","0.5593128013847881,0.24938009178326226,0.6713213889936891","-0.03665861455697994,0.4386499069954206,0.4655003413302212","1.0,-0.04666697700988032,0.4375655321668761",357,274,230,315,"1.0,-0.28704790815198966,-0.09816451385922986",357,"1.0,-0.29113614091237483,-0.20140827106110581",4,117,3.386408100001063
Pri_ET_Study1_1,M,0/0/1900,2022-06-21_15h17.25.968,99,test,Prioritise4,0,circle,cross,square,triangle,"0.28235212283095645,0.4390974279014652,-1.0","0.8458569493622168,0.12238552790175761,0.6108291411981881","1.0,-0.19319706407583936,0.20612000948251996","0.8423878648894922,0.2395276862660105,-1.0",140,293,335,92,"0.28235212283095645,0.4390974279014652,-1.0",140,"0.14752787305018233,0.4669625621869047,-0.7174796825499677",153,259,2.3115407999994204
Pri_ET_Study1_1,M,0/0/1900,2022-06-21_15h17.25.968,100,test,Prioritise3,3,square,circle,cross,triangle,"-0.03545149328753128,0.4915787209123279,-0.3069086161051545","0.024156992038590452,0.42147876676365525,0.5201127943356356","0.7004475934634664,0.30455679594870433,-1.0","0.7726890832158932,0.15810653737494773,0.6353563968956581",174,236,104,288,"0.7726890832158932,0.15810653737494773,0.6353563968956581",288,"1.0,-0.18262560807777894,-0.6564771422547051",32,208,2.364012600000933
Pri_ET_Study1_1,M,0/0/1900,2022-06-21_15h17.25.968,101,test,Prioritise3,3,square,triangle,circle,cross,"1.0,-0.14190666083918357,-0.7896703829265752","0.29323185337982705,0.4365272844863326,-1.0","0.9439739668489959,0.07017173146500566,0.5667550331301558","0.7954699681646173,0.26233143705175754,-1.0",38,139,300,96,"0.7954699681646173,0.26233143705175754,-1.0",96,"0.8423878648894922,0.2395276862660105,-1.0",92,349,3.1929810999990877
Pri_ET_Study1_1,M,0/0/1900,2022-06-21_15h17.25.968,102,test,NoPrioritise,3,circle,square,triangle,cross,"0.8885895249151152,0.10029123080933622,0.593298310174416","-0.11109230792064029,0.494998675286374,-0.11182488810932678","0.5217173616076898,0.3714436344565344,-1.0","0.1997782184249719,0.37114427631595914,0.6168699381761522",296,186,119,250,"0.1997782184249719,0.37114427631595914,0.6168699381761522",250,"0.43579397082986615,0.29501209376045523,0.6694809165992386",266,350,1.993201899998894
Pri_ET_Study1_1,M,0/0/1900,2022-06-21_15h17.25.968,103,test,Prioritise1,2,cross,square,circle,triangle,"-0.0889322071979689,0.49470485377678974,-0.17530036558846096","0.28536486694739915,0.3449661378960809,0.6441272460635925","1.0,-0.23416809090988489,0.11348302116348141","0.6048714455845987,0.34221696469187823,-1.0",182,256,342,112,"1.0,-0.23416809090988489,0.11348302116348141",342,"0.8189948021797893,0.2510686603392729,-1.0",94,220,2.252596000000267
Pri_ET_Study1_1,M,0/0/1900,2022-06-21_15h17.25.968,104,test,NoPrioritise,0,circle,triangle,square,cross,"1.0,0.01469043779870538,-1.0","-0.03545149328753128,0.4915787209123279,-0.3069086161051545","1.0,-0.07007995956776203,0.4066709204115653","0.557247182986663,0.35934004439537626,-1.0",59,174,318,116,"1.0,0.01469043779870538,-1.0",59,"1.0,-0.223312447401106,0.14042906010430367",340,347,2.113713700000517
Pri_ET_Study1_1,M,0/0/1900,2022-06-21_15h17.25.968,105,test,NoPrioritise,3,cross,triangle,square,circle,"0.697563521415238,0.19227379976898162,0.6538323072937366","1.0,-0.015534070910116049,-1.0","-0.15691856372514257,0.4811251279442219,0.20925454252068332","0.1377313063497616,0.46869198128419454,-0.6923217342230605",283,55,208,154,"0.1377313063497616,0.46869198128419454,-0.6923217342230605",154,"1.0,-0.053431764767480794,-1.0",50,53,2.1074485999997705
Pri_ET_Study1_1,M,0/0/1900,2022-06-21_15h17.25.968,106,test,Prioritise2,1,triangle,cross,circle,square,"1.0,0.031678509722878445,0.528693730626498","-0.03545149328753128,0.4915787209123279,-0.3069086161051545","1.0,0.08129056571751603,-1.0","1.0,-0.2784883645829067,-0.04031082501765193",305,174,68,353,"-0.03545149328753128,0.4915787209123279,-0.3069086161051545",174,"-0.06359610428535867,0.4935649245563736,-0.24027710533734647",178,33,2.443227300000217
Pri_ET_Study1_1,M,0/0/1900,2022-06-21_15h17.25.968,107,test,Prioritise2,1,cross,square,triangle,circle,"-0.15691856372514257,0.4811251279442219,0.20925454252068332","1.0,0.008268781307839035,0.5033766660072689","0.8771865507724368,0.22170185938115816,-1.0","1.0,-0.11314379054822865,-0.9277147292103822",208,308,89,42,"1.0,0.008268781307839035,0.5033766660072689",308,"1.0,-0.08353952619481586,-1.0",46,303,2.4599189999989903
Pri_ET_Study1_1,M,0/0/1900,2022-06-21_15h17.25.968,108,test,Prioritise3,2,square,triangle,cross,circle,"1.0,0.016090771115826907,0.5120159997035829","1.0,0.04460337025072447,-1.0","-0.1334211421392112,0.46921826779504494,0.31151742599586085","0.509921421288337,0.37533864292099284,-1.0",307,63,216,120,"-0.1334211421392112,0.46921826779504494,0.31151742599586085",216,"-0.10032491436032498,0.45768874039972984,0.3817396096664756",222,311,1.7426704999998037
Pri_ET_Study1_1,M,0/0/1900,2022-06-21_15h17.25.968,109,test,NoPrioritise,2,cross,triangle,circle,square,"0.7726890832158932,0.15810653737494773,0.6353563968956581","1.0,-0.25779156666188097,0.04465505589445962","0.08211922552252782,0.40518924666980105,0.5597871012004456","0.19781922438295352,0.4574422518266765,-0.8818361039644314",288,347,241,148,"0.08211922552252782,0.40518924666980105,0.5597871012004456",241,"1.0,-0.2885749142137033,-0.24639910949319843",7,199,2.978656900000715
Pri_ET_Study1_1,M,0/0/1900,2022-06-21_15h17.25.968,110,test,Prioritise1,0,triangle,cross,square,circle,"-0.15425303278284086,0.49074605836511664,0.06966808771232391","1.0,-0.13815640460244194,0.305409278040333","1.0,-0.023115205136178596,-1.0","0.5335383805596645,0.36747902832868284,-1.0",198,327,54,118,"-0.15425303278284086,0.49074605836511664,0.06966808771232391",198,"-0.15218698220497417,0.491399065672369,0.0550849709310266",197,278,1.7789359999987937
Pri_ET_Study1_1,M,0/0/1900,2022-06-21_15h17.25.968,111,test,NoPrioritise,3,circle,triangle,square,cross,"0.5902286499321849,0.2372037618456999,0.6692134526599127","0.03656203285471027,0.4839890544285097,-0.46499532916065","1.0,0.03716450464441401,-1.0","1.0,-0.2905255226561695,-0.14211314919909668",276,165,62,0,"1.0,-0.2905255226561695,-0.14211314919909668",0,"0.14752787305018233,0.4669625621869047,-0.7174796825499677",153,258,2.0372067999996943
Pri_ET_Study1_1,M,0/0/1900,2022-06-21_15h17.25.968,112,test,NoPrioritise,1,square,triangle,cross,circle,"1.0,-0.2618543528600009,0.0306611530728087","0.7954699681646173,0.26233143705175754,-1.0","-0.045760705841983884,0.4412666063320212,0.45569155140365925","1.0,-0.13481497066722903,-0.8172789642511413",348,96,229,39,"0.7954699681646173,0.26233143705175754,-1.0",96,"1.0,-0.12765325079304635,-0.8480385611780058",40,346,2.0047127999987424
Pri_ET_Study1_1,M,0/0/1900,2022-06-21_15h17.25.968,113,test,Prioritise4,2,triangle,cross,circle,square,"1.0,0.00043266500642058503,0.4945408245860483","-0.12966480223349675,0.49444262706220066,-0.04980752507879116","0.3262451978832188,0.42843842117143094,-1.0","1.0,-0.176090722701999,-0.6762956704638035",309,190,136,33,"0.3262451978832188,0.42843842117143094,-1.0",136,"0.7836643519746782,0.2678576623980824,-1.0",97,220,2.487273800001276
Pri_ET_Study1_1,M,0/0/1900,2022-06-21_15h17.25.968,114,test,NoPrioritise,1,circle,cross,square,triangle,"0.35978173682339754,0.41977397962065344,-1.0","-0.15745197328482874,0.48927392525561153,0.09851328502402845","0.9566713411825642,0.17778746275501622,-1.0","0.2277843781848521,0.3627318956570289,0.6269388339435948",133,200,82,252,"-0.15745197328482874,0.48927392525561153,0.09851328502402845",200,"-0.1334211421392112,0.46921826779504494,0.31151742599586085",216,350,2.3516502999991644
Pri_ET_Study1_1,M,0/0/1900,2022-06-21_15h17.25.968,115,test,Prioritise2,3,circle,cross,triangle,square,"1.0,-0.20752138035248524,-0.5823144238115788","0.5747774279545166,0.24332959852807035,0.670395358395977","-0.1582066093163167,0.48234509352938293,0.19584550247902222","0.22896995211020998,0.45101907426419996,-1.0",28,275,207,145,"0.22896995211020998,0.45101907426419996,-1.0",145,"0.003196340864616065,0.48789947231709707,-0.3930376390559923",169,209,2.4489080000003014
Pri_ET_Study1_1,M,0/0/1900,2022-06-21_15h17.25.968,116,test,Prioritise2,2,triangle,circle,cross,square,"0.40522526965537775,0.4073086888830977,-1.0","0.9342399836420399,0.1906568045828605,-1.0","-0.007535811164553707,0.4303825516742039,0.4937312314227156","1.0,-0.22467733398512213,-0.5303566464837048",129,84,233,25,"-0.007535811164553707,0.4303825516742039,0.4937312314227156",233,"0.1184165720364383,0.4719787961363635,-0.6454646836219573",156,250,2.24589399999968
Pri_ET_Study1_1,M,0/0/1900,2022-06-21_15h17.25.968,117,test,Prioritise4,0,square,cross,circle,triangle,"0.14752787305018233,0.4669625621869047,-0.7174796825499677","1.0,0.031678509722878445,0.528693730626498","1.0,-0.24976805918886447,-0.4479639557291707","0.04661056885000425,0.4151827959781793,0.5366388806382338",153,305,20,238,"0.14752787305018233,0.4669625621869047,-0.7174796825499677",153,"0.003196340864616065,0.48789947231709707,-0.3930376390559923",169,18,2.6502110000001267
Pri_ET_Study1_1,M,0/0/1900,2022-06-21_15h17.25.968,118,test,Prioritise2,0,square,cross,triangle,circle,"1.0,-0.2812391217555803,-0.30713162009795525","-0.045760705841983884,0.4412666063320212,0.45569155140365925","0.8307090529045498,0.2453327610063578,-1.0","0.5128942075651803,0.26707393527284795,0.6725600501236935",11,229,93,271,"1.0,-0.2812391217555803,-0.30713162009795525",11,"1.0,-0.2905679542092485,-0.21635494529981825",5,179,3.8947572999986733
Pri_ET_Study1_1,M,0/0/1900,2022-06-21_15h17.25.968,119,test,NoPrioritise,3,square,cross,triangle,circle,"1.0,-0.23930972970484676,0.09987881270213972","0.6407010103455535,0.32862970770224886,-1.0","0.8022226392771252,0.14399413187212562,0.6262603189685363","-0.045760705841983884,0.4412666063320212,0.45569155140365925",343,109,290,229,"-0.045760705841983884,0.4412666063320212,0.45569155140365925",229,"-0.007535811164553707,0.4303825516742039,0.4937312314227156",233,210,2.504282100000637
Pri_ET_Study1_1,M,0/0/1900,2022-06-21_15h17.25.968,120,test,Prioritise2,0,cross,circle,square,triangle,"0.38995744222104256,0.31083082350540914,0.6645497918058341","0.06286533759988822,0.4804846395944975,-0.5215000541421746","0.5335383805596645,0.36747902832868284,-1.0","1.0,-0.289651960671372,-0.12741280502186536",263,162,118,359,"0.38995744222104256,0.31083082350540914,0.6645497918058341",263,"0.06286533759988822,0.4804846395944975,-0.5215000541421746",162,178,2.2289425999988453
Pri_ET_Study1_1,M,0/0/1900,2022-06-21_15h17.25.968,121,test,Prioritise1,2,circle,square,triangle,cross,"0.058211064666331636,0.41192535001918484,0.5445760826660213","-0.04985376064386149,0.4926777683571715,-0.2733707743273047","1.0,-0.06229796743051119,0.4171389626044979","0.4864131283203974,0.38292092452220805,-1.0",239,176,317,122,"1.0,-0.06229796743051119,0.4171389626044979",317,"0.17237529551869346,0.3792456671279014,0.6058334931269098",248,249,2.893445599998813
Pri_ET_Study1_1,M,0/0/1900,2022-06-21_15h17.25.968,122,test,Prioritise4,2,circle,cross,square,triangle,"1.0,-0.1558548551326704,-0.7405909184559469","0.31518019558100097,0.43119815975599396,-1.0","0.04661056885000425,0.4151827959781793,0.5366388806382338","0.6670955436242052,0.20546863097446266,0.6594879335101997",36,137,238,281,"0.04661056885000425,0.4151827959781793,0.5366388806382338",238,"0.6056610145008174,0.2310032177113197,0.6677762187869551",277,235,1.884815499999604
Pri_ET_Study1_1,M,0/0/1900,2022-06-21_15h17.25.968,123,test,Prioritise3,1,square,cross,triangle,circle,"1.0,-0.2692625012388049,0.0024658652101630096","0.058211064666331636,0.41192535001918484,0.5445760826660213","-0.14715582087117385,0.4925402828135286,0.025608434090147236","0.8168605703912253,0.13684827598857496,0.6213530935889016",350,239,195,291,"0.058211064666331636,0.41192535001918484,0.5445760826660213",239,"1.0,-0.1159761024614836,0.3405028198215041",324,95,2.8580922999990435
Pri_ET_Study1_1,M,0/0/1900,2022-06-21_15h17.25.968,124,test,NoPrioritise,0,circle,cross,square,triangle,"1.0,0.10281785561567158,-1.0","0.6517915958318632,0.21196052870658733,0.661939301509457","-0.07663707943429687,0.49424057193593485,-0.2075945922293636","1.0,-0.1159761024614836,0.3405028198215041",71,280,180,324,"1.0,0.10281785561567158,-1.0",71,"1.0,-0.06852917744512788,-1.0",48,92,2.4487864000002446
Pri_ET_Study1_1,M,0/0/1900,2022-06-21_15h17.25.968,125,test,Prioritise3,0,cross,triangle,square,circle,"-0.15971287347422924,0.4846106035432911,0.16864202556096686","0.1377313063497616,0.46869198128419454,-0.6923217342230605","1.0,-0.28715474606071,-0.26149890951485844","1.0,0.08129056571751603,-1.0",205,154,8,68,"-0.15971287347422924,0.4846106035432911,0.16864202556096686",205,"1.0,-0.030699357614306977,-1.0",53,82,3.5632201000007626
Pri_ET_Study1_1,M,0/0/1900,2022-06-21_15h17.25.968,126,test,Prioritise2,0,triangle,cross,square,circle,"1.0,-0.27567226916307197,-0.025990342729996674","0.5810306884554026,0.3509198779468534,-1.0","-0.11280811015512238,0.4617870748317987,0.35899735609320693","0.4819850074232215,0.2784837623913883,0.6721002952002628",352,114,220,269,"1.0,-0.27567226916307197,-0.025990342729996674",352,"1.0,-0.02312336799965975,0.4668836380243213",312,116,3.7808795000000828
Pri_ET_Study1_1,M,0/0/1900,2022-06-21_15h17.25.968,127,test,Prioritise1,3,square,circle,cross,triangle,"-0.15325530146069954,0.47850880592239364,0.23567289266690317","1.0,-0.28849207683894174,-0.11276294357485506","1.0,-0.14190666083918357,-0.7896703829265752","0.4864131283203974,0.38292092452220805,-1.0",210,358,38,122,"0.4864131283203974,0.38292092452220805,-1.0",122,"1.0,0.10281785561567158,-1.0",71,209,1.9816886000007798
Pri_ET_Study1_1,M,0/0/1900,2022-06-21_15h17.25.968,128,test,Prioritise2,1,square,cross,circle,triangle,"1.0,-0.18262560807777894,-0.6564771422547051","0.18599750731146814,0.3752337008299145,0.6114718629309206","1.0,-0.24425036060701033,0.08619108045783674","0.14752787305018233,0.4669625621869047,-0.7174796825499677",32,249,344,153,"0.18599750731146814,0.3752337008299145,0.6114718629309206",249,"0.32969209843730707,0.3308126345090221,0.6543985772501693",259,288,2.1922993999996834
Pri_ET_Study1_1,M,0/0/1900,2022-06-21_15h17.25.968,129,test,Prioritise3,3,square,circle,cross,triangle,"-0.12881863109484093,0.46745492896353924,0.32362925960524147","0.05398205218015839,0.48170764156945833,-0.5023703861935837","1.0,-0.00039510366743955583,-1.0","0.8744524420551003,0.1077067653533772,0.5993718879433354",217,163,57,295,"0.8744524420551003,0.1077067653533772,0.5993718879433354",295,"1.0,-0.045861603138592444,-1.0",51,270,2.1433938999998645
Pri_ET_Study1_1,M,0/0/1900,2022-06-21_15h17.25.968,130,test,NoPrioritise,0,square,circle,triangle,cross,"0.03656203285471027,0.4839890544285097,-0.46499532916065","0.21370971933434912,0.36697709911931464,0.6220261074603506","-0.15971287347422924,0.4846106035432911,0.16864202556096686","0.7599790593392,0.278698430329378,-1.0",165,251,205,99,"0.03656203285471027,0.4839890544285097,-0.46499532916065",165,"0.0809641014742315,0.4778728517952051,-0.560834903418019",160,159,2.686309300001085
Pri_ET_Study1_1,M,0/0/1900,2022-06-21_15h17.25.968,131,test,Prioritise3,0,cross,circle,triangle,square,"0.02803139784776887,0.4850479085911541,-0.44669070010662637","1.0,0.08129056571751603,-1.0","1.0,-0.23930972970484676,0.09987881270213972","0.5747774279545166,0.24332959852807035,0.670395358395977",166,68,343,275,"0.02803139784776887,0.4850479085911541,-0.44669070010662637",166,"1.0,0.0520116041796701,-1.0",64,247,2.8088624000010896
Pri_ET_Study1_1,M,0/0/1900,2022-06-21_15h17.25.968,132,test,NoPrioritise,1,square,cross,triangle,circle,"-0.15087465470231598,0.47711162872615454,0.24867635980838454","-0.004817967995419115,0.4887422579776717,-0.37551595656205394","1.0,-0.23006636068103248,-0.5135224369802548","0.7123805921607476,0.2995277721370815,-1.0",211,170,24,103,"-0.004817967995419115,0.4887422579776717,-0.37551595656205394",170,"-0.11109230792064029,0.494998675286374,-0.11182488810932678",186,112,2.0440417000008893
Pri_ET_Study1_1,M,0/0/1900,2022-06-21_15h17.25.968,133,test,NoPrioritise,3,triangle,cross,circle,square,"1.0,0.0520116041796701,-1.0","0.37106831880418345,0.41675617985472035,-1.0","1.0,-0.16655302622891022,0.25673909055504174","1.0,-0.27293323902243416,-0.35332683897484074",64,132,331,14,"1.0,-0.27293323902243416,-0.35332683897484074",14,"0.9342399836420399,0.1906568045828605,-1.0",84,2,2.6904143000010663
Pri_ET_Study1_1,M,0/0/1900,2022-06-21_15h17.25.968,134,test,Prioritise1,1,circle,triangle,square,cross,"1.0,0.04460337025072447,-1.0","0.9165223056430671,0.08531838961047389,0.5804719469242157","-0.15936350859590664,0.487578374203653,0.1269149288768463","0.09948789533259128,0.47503830359136323,-0.601955130836429",63,298,202,158,"0.9165223056430671,0.08531838961047389,0.5804719469242157",298,"1.0,0.031678509722878445,0.528693730626498",305,145,2.194507500000327
Pri_ET_Study1_1,M,0/0/1900,2022-06-21_15h17.25.968,135,test,Prioritise1,0,circle,square,triangle,cross,"1.0,-0.2853220527670477,-0.0836186653125478","0.12802681261339854,0.47036395437091305,-0.6683938146358337","1.0,-0.030978196634575572,0.4572913763932509","0.9454860823634645,0.18425356693025585,-1.0",356,155,313,83,"1.0,-0.2853220527670477,-0.0836186653125478",356,"1.0,-0.28545618498147696,-0.27665271730440133",9,166,3.044176999999763
Pri_ET_Study1_1,M,0/0/1900,2022-06-21_15h17.25.968,136,test,NoPrioritise,2,triangle,circle,square,cross,"1.0,-0.22467733398512213,-0.5303566464837048","-0.09478536258948067,0.49485771099788134,-0.15929400236046964","1.0,0.0885108071490186,-1.0","0.49743207809976986,0.2728177294164349,0.672458831583457",25,183,69,270,"1.0,0.0885108071490186,-1.0",69,"0.003196340864616065,0.48789947231709707,-0.3930376390559923",169,215,2.398846299998695
Pri_ET_Study1_1,M,0/0/1900,2022-06-21_15h17.25.968,137,test,Prioritise2,3,triangle,cross,square,circle,"1.0,-0.25779156666188097,0.04465505589445962","-0.14500574250124976,0.47413711311303364,0.2742570559677715","1.0,-0.030699357614306977,-1.0","-0.004817967995419115,0.4887422579776717,-0.37551595656205394",347,213,53,170,"-0.004817967995419115,0.4887422579776717,-0.37551595656205394",170,"1.0,-0.03828278687151976,-1.0",52,134,3.6315787000003183
Pri_ET_Study1_1,M,0/0/1900,2022-06-21_15h17.25.968,138,test,Prioritise1,1,triangle,cross,circle,square,"1.0,-0.23006636068103248,-0.5135224369802548","0.31518019558100097,0.43119815975599396,-1.0","-0.15601024525342333,0.4900377710624384,0.08414494382818494","1.0,0.00043266500642058503,0.4945408245860483",24,137,199,309,"0.31518019558100097,0.43119815975599396,-1.0",137,"0.06286533759988822,0.4804846395944975,-0.5215000541421746",162,325,1.610624099999768
Pri_ET_Study1_1,M,0/0/1900,2022-06-21_15h17.25.968,139,test,Prioritise1,2,triangle,circle,cross,square,"0.6407010103455535,0.32862970770224886,-1.0","0.9709143462906737,0.05487098646765176,0.5521665648538059","1.0,-0.20752138035248524,-0.5823144238115788","-0.06301515924349677,0.44629443292921844,0.43549282839157066",109,302,28,227,"1.0,-0.20752138035248524,-0.5823144238115788",28,"1.0,-0.18672585607811187,0.21894575397790916",334,292,3.3772014000005584
Pri_ET_Study1_1,M,0/0/1900,2022-06-21_15h17.25.968,140,test,Prioritise4,1,circle,square,cross,triangle,"0.3446475566939091,0.32593623267112437,0.6573177271493604","-0.0889322071979689,0.49470485377678974,-0.17530036558846096","1.0,-0.04666697700988032,0.4375655321668761","0.7718332302050808,0.2733134055615505,-1.0",260,182,315,98,"-0.0889322071979689,0.49470485377678974,-0.17530036558846096",182,"0.1774490411200258,0.4614263698132157,-0.8044096137074778",150,297,1.9660007000002224
Pri_ET_Study1_1,M,0/0/1900,2022-06-21_15h17.25.968,141,test,NoPrioritise,0,triangle,circle,cross,square,"0.7599790593392,0.278698430329378,-1.0","1.0,-0.1694459751095364,-0.6968170409133772","-0.15425303278284086,0.49074605836511664,0.06966808771232391","0.5438403016684124,0.25535465854340766,0.6719910833849003",99,34,198,273,"0.7599790593392,0.278698430329378,-1.0",99,"1.0,0.14454808295369936,-1.0",77,166,2.3127932000006695
Pri_ET_Study1_1,M,0/0/1900,2022-06-21_15h17.25.968,142,test,Prioritise2,2,triangle,circle,square,cross,"0.04521328814621106,0.4828757040428189,-0.4835461552047625","1.0,-0.2810383691272422,-0.05469022987079308","0.04661056885000425,0.4151827959781793,0.5366388806382338","0.6048714455845987,0.34221696469187823,-1.0",164,354,238,112,"0.04661056885000425,0.4151827959781793,0.5366388806382338",238,"1.0,-0.03828278687151976,-1.0",52,50,2.8454915000002075
Pri_ET_Study1_1,M,0/0/1900,2022-06-21_15h17.25.968,143,test,Prioritise1,1,square,triangle,cross,circle,"-0.15913672951032076,0.48350679120805196,0.18230705521727808","0.22896995211020998,0.45101907426419996,-1.0","0.8602068900008202,0.11507220116757,0.6052161878467197","1.0,-0.06852917744512788,-1.0",206,145,294,48,"0.22896995211020998,0.45101907426419996,-1.0",145,"-0.15601024525342333,0.4900377710624384,0.08414494382818494",199,178,1.827736899998854
Pri_ET_Study1_1,M,0/0/1900,2022-06-21_15h17.25.968,144,test,NoPrioritise,3,cross,square,circle,triangle,"1.0,-0.1159761024614836,0.3405028198215041","0.2419946445565604,0.35840841428502257,0.6316066564714324","1.0,-0.14892208927791584,-0.7642951287839744","0.9001622899209403,0.20948101299508481,-1.0",324,253,37,87,"0.9001622899209403,0.20948101299508481,-1.0",87,"0.37478692104604905,0.3159453148278393,0.6623940312376342",262,241,3.4283887000001414
Pri_ET_Study1_1,M,0/0/1900,2022-06-21_15h17.25.968,145,test,Prioritise4,1,triangle,circle,cross,square,"0.1456375685133382,0.387038501124352,0.5938426811268567","0.8189948021797893,0.2510686603392729,-1.0","1.0,0.031678509722878445,0.528693730626498","1.0,-0.045861603138592444,-1.0",246,94,305,51,"0.8189948021797893,0.2510686603392729,-1.0",94,"0.9677931896988998,0.1712594071065523,-1.0",81,142,3.304599600000074
Pri_ET_Study1_1,M,0/0/1900,2022-06-21_15h17.25.968,146,test,Prioritise3,2,square,cross,triangle,circle,"0.557247182986663,0.35934004439537626,-1.0","1.0,-0.2133971103908915,-0.5647212078646006","0.6364477477613335,0.21838082541010184,0.6641383826852352","1.0,0.0885108071490186,-1.0",116,27,279,69,"0.6364477477613335,0.21838082541010184,0.6641383826852352",279,"0.5593128013847881,0.24938009178326226,0.6713213889936891",274,279,1.6608443999994051
Pri_ET_Study1_1,M,0/0/1900,2022-06-21_15h17.25.968,147,test,Prioritise2,2,square,circle,cross,triangle,"0.9303101871846857,0.07776559495072588,0.5737236459068971","-0.15218698220497417,0.491399065672369,0.0550849709310266","1.0,-0.29111130123666484,-0.15686324257888173","0.7836643519746782,0.2678576623980824,-1.0",299,197,1,97,"1.0,-0.29111130123666484,-0.15686324257888173",1,"1.0,0.00043266500642058503,0.4945408245860483",309,179,2.3212196999993466
Pri_ET_Study1_1,M,0/0/1900,2022-06-21_15h17.25.968,148,test,Prioritise3,1,triangle,square,circle,cross,"0.23950483221035568,0.4487573681220651,-1.0","-0.137653653553384,0.47091943313012696,0.2992494234533911","1.0,-0.23930972970484676,0.09987881270213972","0.6517915958318632,0.21196052870658733,0.661939301509457",144,215,343,280,"-0.137653653553384,0.47091943313012696,0.2992494234533911",215,"0.3262451978832188,0.42843842117143094,-1.0",136,305,3.1122809999997116
Pri_ET_Study1_1,M,0/0/1900,2022-06-21_15h17.25.968,149,test,Prioritise4,0,triangle,square,circle,cross,"1.0,-0.19533700364355222,-0.6185256211936343","0.8885895249151152,0.10029123080933622,0.593298310174416","-0.15857178695416452,0.48845422840718666,0.1127707600476957","0.2563330525591274,0.3540064263668754,0.6360281906414551",30,296,201,254,"1.0,-0.19533700364355222,-0.6185256211936343",30,"0.8189948021797893,0.2510686603392729,-1.0",94,336,2.526618199999575
Pri_ET_Study1_1,M,0/0/1900,2022-06-21_15h17.25.968,150,test,NoPrioritise,1,square,triangle,circle,cross,"0.07004997715874661,0.40859431628906884,0.5522929170622126","0.03656203285471027,0.4839890544285097,-0.46499532916065","1.0,-0.22467733398512213,-0.5303566464837048","1.0,-0.223312447401106,0.14042906010430367",240,165,25,340,"0.03656203285471027,0.4839890544285097,-0.46499532916065",165,"0.03656203285471027,0.4839890544285097,-0.46499532916065",165,192,3.9244980000003125
Pri_ET_Study1_1,M,0/0/1900,2022-06-21_15h17.25.968,151,test,NoPrioritise,1,circle,cross,triangle,square,"0.557247182986663,0.35934004439537626,-1.0","-0.028015013033697245,0.49094955428922593,-0.32385780920023366","0.08211922552252782,0.40518924666980105,0.5597871012004456","1.0,-0.2288330890480459,0.12700076968242469",116,173,241,341,"-0.028015013033697245,0.49094955428922593,-0.32385780920023366",173,"0.40522526965537775,0.4073086888830977,-1.0",129,281,2.1248532999998133
Pri_ET_Study1_1,M,0/0/1900,2022-06-21_15h17.25.968,152,test,Prioritise4,1,cross,square,circle,triangle,"0.35978173682339754,0.41977397962065344,-1.0","1.0,0.0885108071490186,-1.0","0.4204673865307198,0.3003640950728248,0.6680936776579738","-0.03545149328753128,0.4915787209123279,-0.3069086161051545",133,69,265,174,"1.0,0.0885108071490186,-1.0",69,"1.0,-0.015534070910116049,-1.0",55,330,1.7566511000004539
Pri_ET_Study1_1,M,0/0/1900,2022-06-21_15h17.25.968,153,test,Prioritise4,2,square,triangle,circle,cross,"1.0,-0.19952917352700617,0.19318579588388318","-0.11850987372908683,0.4637398184337027,0.34737226103556385","0.6823545184579658,0.19890605819631269,0.6567852503614975","1.0,-0.14892208927791584,-0.7642951287839744",336,219,282,37,"0.6823545184579658,0.19890605819631269,0.6567852503614975",282,"1.0,-0.1453950522675579,0.29343624696038684",328,184,2.6399462999997922
Pri_ET_Study1_1,M,0/0/1900,2022-06-21_15h17.25.968,154,test,NoPrioritise,1,square,circle,cross,triangle,"-0.1336957186097738,0.49417000388378884,-0.03453353894846056","-0.02724900693809007,0.43596400275120595,0.47511170232003863","1.0,0.022205290041545256,-1.0","1.0,-0.19319706407583936,0.20612000948251996",191,231,60,335,"-0.02724900693809007,0.43596400275120595,0.47511170232003863",231,"0.002753009035763032,0.42748599986642954,0.5027340537090634",234,100,2.110838299999159
Pri_ET_Study1_1,M,0/0/1900,2022-06-21_15h17.25.968,155,test,Prioritise3,0,square,triangle,cross,circle,"1.0,0.016090771115826907,0.5120159997035829","1.0,-0.29113614091237483,-0.20140827106110581","-0.1582066093163167,0.48234509352938293,0.19584550247902222","1.0,0.1377261376429495,-1.0",307,4,207,76,"1.0,0.016090771115826907,0.5120159997035829",307,"0.04521328814621106,0.4828757040428189,-0.4835461552047625",164,250,2.373528099999021
Pri_ET_Study1_1,M,0/0/1900,2022-06-21_15h17.25.968,156,test,Prioritise3,1,circle,triangle,cross,square,"0.8885895249151152,0.10029123080933622,0.593298310174416","-0.03665861455697994,0.4386499069954206,0.4655003413302212","0.8771865507724368,0.22170185938115816,-1.0","1.0,-0.176090722701999,-0.6762956704638035",296,230,89,33,"-0.03665861455697994,0.4386499069954206,0.4655003413302212",230,"0.8771865507724368,0.22170185938115816,-1.0",89,9,2.7416450000000623
Pri_ET_Study1_1,M,0/0/1900,2022-06-21_15h17.25.968,157,test,Prioritise1,3,square,triangle,circle,cross,"1.0,-0.19319706407583936,0.20612000948251996","1.0,-0.24513616553833184,-0.4641238358039159","0.4630300053623657,0.39022810787803497,-1.0","1.0,0.07402842417913646,-1.0",335,21,124,67,"1.0,0.07402842417913646,-1.0",67,"1.0,0.029697581538389972,-1.0",61,162,3.403056999999535
Pri_ET_Study1_1,M,0/0/1900,2022-06-21_15h17.25.968,158,test,NoPrioritise,2,square,cross,circle,triangle,"-0.07115460775268467,0.4487065849390661,0.42510855757080535","0.9001622899209403,0.20948101299508481,-1.0","1.0,-0.23006636068103248,-0.5135224369802548","0.49743207809976986,0.2728177294164349,0.672458831583457",226,87,24,270,"1.0,-0.23006636068103248,-0.5135224369802548",24,"0.911575527904773,0.20327130372654878,-1.0",86,333,2.7008511000003637
Pri_ET_Study1_1,M,0/0/1900,2022-06-21_15h17.25.968,159,test,Prioritise1,2,circle,square,triangle,cross,"1.0,-0.1159761024614836,0.3405028198215041","0.49743207809976986,0.2728177294164349,0.672458831583457","-0.1336957186097738,0.49417000388378884,-0.03453353894846056","1.0,-0.24513616553833184,-0.4641238358039159",324,270,191,21,"-0.1336957186097738,0.49417000388378884,-0.03453353894846056",191,"0.1184165720364383,0.4719787961363635,-0.6454646836219573",156,174,3.611670599999343
Pri_ET_Study1_1,M,0/0/1900,2022-06-21_15h17.25.968,160,test,Prioritise3,3,triangle,square,cross,circle,"0.8189948021797893,0.2510686603392729,-1.0","1.0,-0.223312447401106,0.14042906010430367","0.002753009035763032,0.42748599986642954,0.5027340537090634","-0.12085421394465079,0.49482727509491764,-0.08063336981743141",94,340,234,188,"-0.12085421394465079,0.49482727509491764,-0.08063336981743141",188,"0.03525654226328623,0.4183671124064994,0.5284836519992187",237,204,2.6701644000004308
Pri_ET_Study1_1,M,0/0/1900,2022-06-21_15h17.25.968,161,test,Prioritise3,2,circle,square,cross,triangle,"0.6765582342033039,0.31440040312493167,-1.0","0.1377313063497616,0.46869198128419454,-0.6923217342230605","0.6517915958318632,0.21196052870658733,0.661939301509457","0.058211064666331636,0.41192535001918484,0.5445760826660213",106,154,280,239,"0.6517915958318632,0.21196052870658733,0.661939301509457",280,"0.6056610145008174,0.2310032177113197,0.6677762187869551",277,17,1.5313238999988243
Pri_ET_Study1_1,M,0/0/1900,2022-06-21_15h17.25.968,162,test,NoPrioritise,3,triangle,square,cross,circle,"-0.10674528321075638,0.4597702151299572,0.3704541436797111","0.3373683384989987,0.425614728337375,-1.0","0.49743207809976986,0.2728177294164349,0.672458831583457","1.0,-0.16655302622891022,0.25673909055504174",221,135,270,331,"1.0,-0.16655302622891022,0.25673909055504174",331,"1.0,-0.04666697700988032,0.4375655321668761",315,12,2.5253665000000183
Pri_ET_Study1_1,M,0/0/1900,2022-06-21_15h17.25.968,163,test,Prioritise4,2,cross,triangle,square,circle,"0.6287517000804042,0.333230015934751,-1.0","1.0,0.022205290041545256,-1.0","0.0809641014742315,0.4778728517952051,-0.560834903418019","1.0,-0.2810383691272422,-0.05469022987079308",110,60,160,354,"0.0809641014742315,0.4778728517952051,-0.560834903418019",160,"0.18759316868675757,0.45946387343509576,-0.8398972692549822",149,339,2.257098300000507
Pri_ET_Study1_1,M,0/0/1900,2022-06-21_15h17.25.968,164,test,Prioritise4,3,square,triangle,cross,circle,"1.0,-0.09100024043058197,-1.0","-0.10587186235375057,0.4950046804635242,-0.12755688133261178","1.0,0.008268781307839035,0.5033766660072689","0.28235212283095645,0.4390974279014652,-1.0",45,185,308,140,"0.28235212283095645,0.4390974279014652,-1.0",140,"0.35978173682339754,0.41977397962065344,-1.0",133,336,1.8623569999999745
Pri_ET_Study1_1,M,0/0/1900,2022-06-21_15h17.25.968,165,test,Prioritise3,2,cross,triangle,circle,square,"0.7123805921607476,0.2995277721370815,-1.0","1.0,-0.28331765203541326,-0.06912673399707303","1.0,-0.04666697700988032,0.4375655321668761","-0.004817967995419115,0.4887422579776717,-0.37551595656205394",103,355,315,170,"1.0,-0.04666697700988032,0.4375655321668761",315,"1.0,-0.07783297952557244,0.3960373748090056",319,192,3.6492467999996734
Pri_ET_Study1_1,M,0/0/1900,2022-06-21_15h17.25.968,166,test,Prioritise3,1,circle,cross,triangle,square,"0.29323185337982705,0.4365272844863326,-1.0","1.0,-0.25349859092244853,0.058576446168723484","0.6517915958318632,0.21196052870658733,0.661939301509457","1.0,-0.023115205136178596,-1.0",139,346,280,54,"1.0,-0.25349859092244853,0.058576446168723484",346,"0.7718332302050808,0.2733134055615505,-1.0",98,252,3.8121389000007184
Pri_ET_Study1_1,M,0/0/1900,2022-06-21_15h17.25.968,167,test,Prioritise3,3,triangle,cross,circle,square,"1.0,-0.015534070910116049,-1.0","0.3937919637711427,0.41052389502637143,-1.0","0.7428418032534498,0.17196979648312705,0.6434837115546581","1.0,-0.2810383691272422,-0.05469022987079308",55,130,286,354,"1.0,-0.2810383691272422,-0.05469022987079308",354,"0.9439739668489959,0.07017173146500566,0.5667550331301558",300,187,2.39083920000121
Pri_ET_Study1_1,M,0/0/1900,2022-06-21_15h17.25.968,168,test,Prioritise2,0,cross,circle,triangle,square,"0.557247182986663,0.35934004439537626,-1.0","1.0,-0.24030349193845646,-0.4804258498410512","-0.10674528321075638,0.4597702151299572,0.3704541436797111","0.7278119810668549,0.17880451220180715,0.6471802765379799",116,22,221,285,"0.557247182986663,0.35934004439537626,-1.0",116,"0.9342399836420399,0.1906568045828605,-1.0",84,18,1.994964899999104
Pri_ET_Study1_1,M,0/0/1900,2022-06-21_15h17.25.968,169,test,Prioritise1,1,square,triangle,circle,cross,"0.9342399836420399,0.1906568045828605,-1.0","0.003196340864616065,0.48789947231709707,-0.3930376390559923","1.0,-0.0855518419522695,0.38524161028667625","-0.15087465470231598,0.47711162872615454,0.24867635980838454",84,169,320,211,"0.003196340864616065,0.48789947231709707,-0.3930376390559923",169,"0.1377313063497616,0.46869198128419454,-0.6923217342230605",154,24,3.3143777000004775
Pri_ET_Study1_1,M,0/0/1900,2022-06-21_15h17.25.968,170,test,Prioritise1,1,triangle,circle,cross,square,"1.0,-0.09100024043058197,-1.0","1.0,-0.23930972970484676,0.09987881270213972","0.23950483221035568,0.4487573681220651,-1.0","0.002753009035763032,0.42748599986642954,0.5027340537090634",45,343,144,234,"1.0,-0.23930972970484676,0.09987881270213972",343,"-0.0789607698268403,0.4510515800167316,0.41453817725242015",225,45,2.3644248000000516
Pri_ET_Study1_1,M,0/0/1900,2022-06-21_15h17.25.968,171,test,Prioritise3,2,cross,triangle,circle,square,"1.0,-0.266139671692747,-0.3844942650329082","-0.13746749759655974,0.49384364036211803,-0.01935357496354817","0.6407010103455535,0.32862970770224886,-1.0","0.21370971933434912,0.36697709911931464,0.6220261074603506",16,192,109,251,"0.6407010103455535,0.32862970770224886,-1.0",109,"0.7243026375027783,0.2944273290124073,-1.0",102,10,1.8613432000001922
Pri_ET_Study1_1,M,0/0/1900,2022-06-21_15h17.25.968,172,test,Prioritise2,0,circle,cross,triangle,square,"1.0,-0.27293323902243416,-0.35332683897484074","0.04521328814621106,0.4828757040428189,-0.4835461552047625","0.8022226392771252,0.14399413187212562,0.6262603189685363","0.5335383805596645,0.36747902832868284,-1.0",14,164,290,118,"1.0,-0.27293323902243416,-0.35332683897484074",14,"1.0,-0.24513616553833184,-0.4641238358039159",21,146,2.734692300000461
Pri_ET_Study1_1,M,0/0/1900,2022-06-21_15h17.25.968,173,test,Prioritise1,3,square,cross,triangle,circle,"0.011345098196205106,0.4870029319956142,-0.41073039696963887","-0.11280811015512238,0.4617870748317987,0.35899735609320693","1.0,-0.283482916447115,-0.29186272671519153","0.911575527904773,0.20327130372654878,-1.0",168,220,10,86,"0.911575527904773,0.20327130372654878,-1.0",86,"0.8423878648894922,0.2395276862660105,-1.0",92,313,2.247981999998956
Pri_ET_Study1_1,M,0/0/1900,2022-06-21_15h17.25.968,174,test,Prioritise4,0,square,cross,circle,triangle,"1.0,-0.24513616553833184,-0.4641238358039159","1.0,0.1377261376429495,-1.0","1.0,-0.20571451687417974,0.18014638001872707","0.7428418032534498,0.17196979648312705,0.6434837115546581",21,76,337,286,"1.0,-0.24513616553833184,-0.4641238358039159",21,"1.0,-0.2905679542092485,-0.21635494529981825",5,343,2.658055099998819
Pri_ET_Study1_1,M,0/0/1900,2022-06-21_15h17.25.968,175,test,Prioritise2,3,square,cross,triangle,circle,"1.0,-0.15254529173699993,0.2813312795320311","0.9342399836420399,0.1906568045828605,-1.0","-0.1160886962144162,0.49493957268076216,-0.09618366371381681","1.0,-0.18904346603826983,-0.637249894721835",329,84,187,31,"1.0,-0.18904346603826983,-0.637249894721835",31,"1.0,-0.2810383691272422,-0.05469022987079308",354,7,2.6736194000004616
Pri_ET_Study1_1,M,0/0/1900,2022-06-21_15h17.25.968,176,test,Prioritise1,0,circle,cross,triangle,square,"1.0,-0.20571451687417974,0.18014638001872707","0.15741439024530024,0.4651753747362595,-0.7441898531558468","-0.15936350859590664,0.487578374203653,0.1269149288768463","0.8189948021797893,0.2510686603392729,-1.0",337,152,202,94,"1.0,-0.20571451687417974,0.18014638001872707",337,"1.0,-0.2784883645829067,-0.04031082501765193",353,60,2.13565109999945
Pri_ET_Study1_1,M,0/0/1900,2022-06-21_15h17.25.968,177,test,Prioritise2,0,cross,square,triangle,circle,"1.0,0.031678509722878445,0.528693730626498","-0.07115460775268467,0.4487065849390661,0.42510855757080535","-0.028015013033697245,0.49094955428922593,-0.32385780920023366","0.9898363577373541,0.15802139914365565,-1.0",305,226,173,79,"1.0,0.031678509722878445,0.528693730626498",305,"1.0,-0.265680167273015,0.01659727634298691",349,326,2.3277507000002515
Pri_ET_Study1_1,M,0/0/1900,2022-06-21_15h17.25.968,178,test,Prioritise3,3,circle,cross,triangle,square,"1.0,-0.06229796743051119,0.4171389626044979","1.0,-0.2541916545294901,-0.43193236346031305","-0.020427730643879483,0.49026716567376205,-0.3409363637973366","1.0,0.029697581538389972,-1.0",317,19,172,61,"1.0,0.029697581538389972,-1.0",61,"-0.007535811164553707,0.4303825516742039,0.4937312314227156",233,21,2.405821799999103
Pri_ET_Study1_1,M,0/0/1900,2022-06-21_15h17.25.968,179,test,NoPrioritise,3,cross,square,circle,triangle,"1.0,0.031678509722878445,0.528693730626498","1.0,-0.07604755533137741,-1.0","0.8307090529045498,0.2453327610063578,-1.0","1.0,-0.2618543528600009,0.0306611530728087",305,47,93,348,"1.0,-0.2618543528600009,0.0306611530728087",348,"0.8189948021797893,0.2510686603392729,-1.0",94,242,2.252054799999314
Pri_ET_Study1_1,M,0/0/1900,2022-06-21_15h17.25.968,180,test,Prioritise1,1,cross,circle,triangle,square,"1.0,-0.09842467873037941,-1.0","0.5128942075651803,0.26707393527284795,0.6725600501236935","0.09948789533259128,0.47503830359136323,-0.601955130836429","0.911575527904773,0.20327130372654878,-1.0",44,271,158,86,"0.5128942075651803,0.26707393527284795,0.6725600501236935",271,"0.8656291340184048,0.2277117481201254,-1.0",90,227,3.773479600000428
Pri_ET_Study1_1,M,0/0/1900,2022-06-21_15h17.25.968,181,test,Prioritise1,3,square,triangle,cross,circle,"-0.0789607698268403,0.4510515800167316,0.41453817725242015","1.0,-0.07783297952557244,0.3960373748090056","1.0,-0.08353952619481586,-1.0","0.6048714455845987,0.34221696469187823,-1.0",225,319,46,112,"0.6048714455845987,0.34221696469187823,-1.0",112,"0.5128942075651803,0.26707393527284795,0.6725600501236935",271,357,2.566658499999903
Pri_ET_Study1_1,M,0/0/1900,2022-06-21_15h17.25.968,182,test,Prioritise1,2,triangle,cross,square,circle,"0.5810306884554026,0.3509198779468534,-1.0","0.04661056885000425,0.4151827959781793,0.5366388806382338","1.0,-0.09842467873037941,-1.0","1.0,-0.17339639938985352,0.2442586263282529",114,238,44,332,"1.0,-0.09842467873037941,-1.0",44,"-0.05680994196765965,0.4931478034098584,-0.2567707460520542",177,12,2.3482810000004974
Pri_ET_Study1_1,M,0/0/1900,2022-06-21_15h17.25.968,183,test,NoPrioritise,3,triangle,cross,square,circle,"1.0,-0.007413941176475647,0.4855113905503705","-0.1334211421392112,0.46921826779504494,0.31151742599586085","0.41670369996421397,0.40402696808005323,-1.0","0.3000437839717358,0.34032750492681907,0.6478023910819077",310,216,128,257,"0.3000437839717358,0.34032750492681907,0.6478023910819077",257,"0.8771865507724368,0.22170185938115816,-1.0",89,219,3.0123070999998163
Pri_ET_Study1_1,M,0/0/1900,2022-06-21_15h17.25.968,184,test,Prioritise2,2,circle,cross,triangle,square,"0.21850949126575658,0.4532202130288874,-0.9933869065076532","1.0,-0.09100024043058197,-1.0","0.08211922552252782,0.40518924666980105,0.5597871012004456","1.0,-0.1453950522675579,0.29343624696038684",146,45,241,328,"0.08211922552252782,0.40518924666980105,0.5597871012004456",241,"1.0,-0.1694459751095364,-0.6968170409133772",34,278,2.9764078999996855
Pri_ET_Study1_1,M,0/0/1900,2022-06-21_15h17.25.968,185,test,NoPrioritise,2,circle,triangle,square,cross,"-0.09355100115627091,0.45554214766479406,0.3928507547204487","1.0,-0.28704790815198966,-0.09816451385922986","0.5283655398475315,0.26125276704655587,0.6724040666408482","0.6287517000804042,0.333230015934751,-1.0",223,357,272,110,"0.5283655398475315,0.26125276704655587,0.6724040666408482",272,"-0.11109230792064029,0.494998675286374,-0.11182488810932678",186,66,2.074431999999433
Pri_ET_Study1_1,M,0/0/1900,2022-06-21_15h17.25.968,186,test,Prioritise2,1,square,triangle,cross,circle,"1.0,0.06672643376273091,-1.0","0.43579397082986615,0.29501209376045523,0.6694809165992386","1.0,-0.266139671692747,-0.3844942650329082","-0.1160886962144162,0.49493957268076216,-0.09618366371381681",66,266,16,187,"0.43579397082986615,0.29501209376045523,0.6694809165992386",266,"0.4051864188365102,0.30563705046778256,0.6664498358678796",264,53,2.4150454999999056
Pri_ET_Study1_1,M,0/0/1900,2022-06-21_15h17.25.968,187,test,Prioritise1,1,triangle,cross,square,circle,"1.0,-0.24513616553833184,-0.4641238358039159","0.8885895249151152,0.10029123080933622,0.593298310174416","1.0,0.14454808295369936,-1.0","-0.11850987372908683,0.4637398184337027,0.34737226103556385",21,296,77,219,"0.8885895249151152,0.10029123080933622,0.593298310174416",296,"1.0,0.00043266500642058503,0.4945408245860483",309,177,2.1892993000001297
Pri_ET_Study1_1,M,0/0/1900,2022-06-21_15h17.25.968,188,test,NoPrioritise,0,circle,square,cross,triangle,"-0.12085421394465079,0.49482727509491764,-0.08063336981743141","1.0,-0.28545618498147696,-0.27665271730440133","1.0,-0.07783297952557244,0.3960373748090056","0.2419946445565604,0.35840841428502257,0.6316066564714324",188,9,319,253,"-0.12085421394465079,0.49482727509491764,-0.08063336981743141",188,"-0.1336957186097738,0.49417000388378884,-0.03453353894846056",191,68,2.3208954999990965
Pri_ET_Study1_1,M,0/0/1900,2022-06-21_15h17.25.968,189,test,Prioritise1,3,cross,square,triangle,circle,"-0.1552691192795369,0.47984650043174004,0.22253130766167373","0.9973143857544444,0.03943765994348003,0.5367265506444097","0.14752787305018233,0.4669625621869047,-0.7174796825499677","0.3446475566939091,0.32593623267112437,0.6573177271493604",209,304,153,260,"0.3446475566939091,0.32593623267112437,0.6573177271493604",260,"0.37478692104604905,0.3159453148278393,0.6623940312376342",262,155,1.9706760000008217
Pri_ET_Study1_1,M,0/0/1900,2022-06-21_15h17.25.968,190,test,Prioritise2,3,square,circle,triangle,cross,"1.0,-0.18904346603826983,-0.637249894721835","0.7123805921607476,0.2995277721370815,-1.0","0.09948789533259128,0.47503830359136323,-0.601955130836429","1.0,-0.10844910144201803,0.3519141850209708",31,103,158,323,"1.0,-0.10844910144201803,0.3519141850209708",323,"1.0,-0.09100024043058197,-1.0",45,146,2.034978700001375
Pri_ET_Study1_1,M,0/0/1900,2022-06-21_15h17.25.968,191,test,Prioritise1,0,cross,triangle,circle,square,"1.0,-0.2784883645829067,-0.04031082501765193","0.3937919637711427,0.41052389502637143,-1.0","-0.11280811015512238,0.4617870748317987,0.35899735609320693","0.43579397082986615,0.29501209376045523,0.6694809165992386",353,130,220,266,"1.0,-0.2784883645829067,-0.04031082501765193",353,"1.0,-0.283482916447115,-0.29186272671519153",10,182,2.4936250999999174
Pri_ET_Study1_1,M,0/0/1900,2022-06-21_15h17.25.968,192,test,Prioritise2,3,cross,circle,triangle,square,"1.0,-0.1801231371030828,0.23165973332613699","0.03656203285471027,0.4839890544285097,-0.46499532916065","0.3446475566939091,0.32593623267112437,0.6573177271493604","1.0,-0.20149881210311282,-0.6002331830476271",333,165,260,29,"1.0,-0.20149881210311282,-0.6002331830476271",29,"1.0,-0.023115205136178596,-1.0",54,332,2.3424973000001046
Pri_ET_Study1_1,M,0/0/1900,2022-06-21_15h17.25.968,193,test,NoPrioritise,0,square,circle,triangle,cross,"1.0,-0.13815640460244194,0.305409278040333","1.0,-0.11314379054822865,-0.9277147292103822","0.8656291340184048,0.2277117481201254,-1.0","-0.06359610428535867,0.4935649245563736,-0.24027710533734647",327,42,90,178,"1.0,-0.13815640460244194,0.305409278040333",327,"1.0,-0.28849207683894174,-0.11276294357485506",358,278,2.1062416000004305
Pri_ET_Study1_1,M,0/0/1900,2022-06-21_15h17.25.968,194,test,NoPrioritise,2,circle,square,triangle,cross,"1.0,-0.03828278687151976,-1.0","0.5691306813430501,0.3551652128948415,-1.0","-0.10674528321075638,0.4597702151299572,0.3704541436797111","1.0,-0.2117453636986133,0.16700499532847024",52,115,221,338,"-0.10674528321075638,0.4597702151299572,0.3704541436797111",221,"-0.10587186235375057,0.4950046804635242,-0.12755688133261178",185,124,2.3150152999987768
Pri_ET_Study1_1,M,0/0/1900,2022-06-21_15h17.25.968,195,test,Prioritise3,1,circle,square,triangle,cross,"1.0,-0.053431764767480794,-1.0","0.8656291340184048,0.2277117481201254,-1.0","1.0,-0.28545618498147696,-0.27665271730440133","1.0,0.016090771115826907,0.5120159997035829",50,90,9,307,"0.8656291340184048,0.2277117481201254,-1.0",90,"1.0,-0.2541916545294901,-0.43193236346031305",19,33,2.2532470999994985
Pri_ET_Study1_1,M,0/0/1900,2022-06-21_15h17.25.968,196,test,Prioritise3,2,cross,circle,triangle,square,"1.0,-0.015534070910116049,-1.0","0.9165223056430671,0.08531838961047389,0.5804719469242157","0.04661056885000425,0.4151827959781793,0.5366388806382338","0.25011230249462657,0.4464347244570299,-1.0",55,298,238,143,"0.04661056885000425,0.4151827959781793,0.5366388806382338",238,"0.002753009035763032,0.42748599986642954,0.5027340537090634",234,17,1.824904900000547
Pri_ET_Study1_1,M,0/0/1900,2022-06-21_15h17.25.968,197,test,NoPrioritise,1,cross,circle,triangle,square,"0.3148218664135791,0.3356097028178475,0.6512264970146455","1.0,-0.19533700364355222,-0.6185256211936343","1.0,0.14454808295369936,-1.0","-0.15913672951032076,0.48350679120805196,0.18230705521727808",258,30,77,206,"1.0,-0.19533700364355222,-0.6185256211936343",30,"1.0,0.022205290041545256,-1.0",60,347,2.2507231999989017
Pri_ET_Study1_1,M,0/0/1900,2022-06-21_15h17.25.968,198,test,Prioritise4,3,cross,square,circle,triangle,"1.0,0.016090771115826907,0.5120159997035829","-0.09478536258948067,0.49485771099788134,-0.15929400236046964","1.0,-0.023115205136178596,-1.0","0.6885060196604067,0.3095143481419429,-1.0",307,183,54,105,"0.6885060196604067,0.3095143481419429,-1.0",105,"0.6526534052453359,0.32395804637990677,-1.0",108,268,2.561065599998983
Pri_ET_Study1_1,M,0/0/1900,2022-06-21_15h17.25.968,199,test,Prioritise4,3,circle,square,triangle,cross,"0.37478692104604905,0.3159453148278393,0.6623940312376342","0.6765582342033039,0.31440040312493167,-1.0","-0.15218698220497417,0.491399065672369,0.0550849709310266","1.0,-0.1453950522675579,0.29343624696038684",262,106,197,328,"1.0,-0.1453950522675579,0.29343624696038684",328,"1.0,-0.16655302622891022,0.25673909055504174",331,338,2.4593218000009074
Pri_ET_Study1_1,M,0/0/1900,2022-06-21_15h17.25.968,200,test,Prioritise4,0,triangle,square,circle,cross,"-0.11850987372908683,0.4637398184337027,0.34737226103556385","0.5902286499321849,0.2372037618456999,0.6692134526599127","1.0,-0.23006636068103248,-0.5135224369802548","-0.04985376064386149,0.4926777683571715,-0.2733707743273047",219,276,24,176,"-0.11850987372908683,0.4637398184337027,0.34737226103556385",219,"-0.10032491436032498,0.45768874039972984,0.3817396096664756",222,245,2.8632349999988946
Pri_ET_Study1_1,M,0/0/1900,2022-06-21_15h17.25.968,201,test,Prioritise1,3,circle,square,cross,triangle,"1.0,0.023895135487088437,0.520455959599228","1.0,-0.2885749142137033,-0.24639910949319843","-0.02724900693809007,0.43596400275120595,0.47511170232003863","0.10890282843090082,0.4735368131811257,-0.6233623294930688",306,7,231,157,"0.10890282843090082,0.4735368131811257,-0.6233623294930688",157,"0.9788490541088481,0.1646703741338249,-1.0",80,270,2.0450989000000845
Pri_ET_Study1_1,M,0/0/1900,2022-06-21_15h17.25.968,202,test,Prioritise4,1,cross,square,circle,triangle,"1.0,-0.27567226916307197,-0.025990342729996674","0.9342399836420399,0.1906568045828605,-1.0","0.019624625934283157,0.48605247051678724,-0.428609032695351","1.0,-0.02312336799965975,0.4668836380243213",352,84,167,312,"0.9342399836420399,0.1906568045828605,-1.0",84,"1.0,-0.1694459751095364,-0.6968170409133772",34,188,4.167032199999085
Pri_ET_Study1_1,M,0/0/1900,2022-06-21_15h17.25.968,203,test,Prioritise4,3,triangle,cross,circle,square,"0.18599750731146814,0.3752337008299145,0.6114718629309206","0.9575099088241161,0.0625393185362546,0.5595685159060846","0.04521328814621106,0.4828757040428189,-0.4835461552047625","1.0,-0.10580765013847959,-0.9756165541078137",249,301,164,43,"1.0,-0.10580765013847959,-0.9756165541078137",43,"1.0,-0.09100024043058197,-1.0",45,186,1.8571002000007866
Pri_ET_Study1_1,M,0/0/1900,2022-06-21_15h17.25.968,204,test,Prioritise2,2,square,triangle,cross,circle,"1.0,-0.17339639938985352,0.2442586263282529","-0.03545149328753128,0.4915787209123279,-0.3069086161051545","-0.12881863109484093,0.46745492896353924,0.32362925960524147","1.0,-0.24513616553833184,-0.4641238358039159",332,174,217,21,"-0.12881863109484093,0.46745492896353924,0.32362925960524147",217,"1.0,-0.21911833444213913,-0.5474132739956148",26,117,2.776574100000289
Pri_ET_Study1_1,M,0/0/1900,2022-06-21_15h17.25.968,205,test,Prioritise2,1,cross,triangle,circle,square,"-0.12384754992127334,0.4656289401720195,0.3355818842165046","1.0,0.12391818455152381,-1.0","0.18759316868675757,0.45946387343509576,-0.8398972692549822","0.8458569493622168,0.12238552790175761,0.6108291411981881",218,74,149,293,"1.0,0.12391818455152381,-1.0",74,"1.0,-0.053431764767480794,-1.0",50,43,1.808753199999046
Pri_ET_Study1_1,M,0/0/1900,2022-06-21_15h17.25.968,206,test,Prioritise2,1,circle,triangle,square,cross,"-0.15601024525342333,0.4900377710624384,0.08414494382818494","1.0,0.0885108071490186,-1.0","1.0,-0.2352776592018201,-0.4968859262116322","0.8458569493622168,0.12238552790175761,0.6108291411981881",199,69,23,293,"1.0,0.0885108071490186,-1.0",69,"1.0,-0.030699357614306977,-1.0",53,38,1.9577355999990687
Pri_ET_Study1_1,M,0/0/1900,2022-06-21_15h17.25.968,207,test,Prioritise3,3,triangle,circle,cross,square,"0.6287517000804042,0.333230015934751,-1.0","0.4819850074232215,0.2784837623913883,0.6721002952002628","1.0,-0.2541916545294901,-0.43193236346031305","0.003196340864616065,0.48789947231709707,-0.3930376390559923",110,269,19,169,"0.003196340864616065,0.48789947231709707,-0.3930376390559923",169,"0.3446475566939091,0.32593623267112437,0.6573177271493604",260,163,2.4498645000003307
Pri_ET_Study1_1,M,0/0/1900,2022-06-21_15h17.25.968,208,test,Prioritise2,2,circle,square,triangle,cross,"1.0,-0.2759589912597996,-0.3378595329546661","1.0,0.01469043779870538,-1.0","-0.1552691192795369,0.47984650043174004,0.22253130766167373","0.3262451978832188,0.42843842117143094,-1.0",13,59,209,136,"-0.1552691192795369,0.47984650043174004,0.22253130766167373",209,"1.0,-0.1558548551326704,-0.7405909184559469",36,38,2.9450249999990774
Pri_ET_Study1_1,M,0/0/1900,2022-06-21_15h17.25.968,209,test,Prioritise4,2,square,triangle,cross,circle,"0.2081252941518954,0.4553611512282272,-0.9356957589344492","0.9439739668489959,0.07017173146500566,0.5667550331301558","1.0,0.04460337025072447,-1.0","-0.11280811015512238,0.4617870748317987,0.35899735609320693",147,300,63,220,"1.0,0.04460337025072447,-1.0",63,"1.0,-0.0855518419522695,0.38524161028667625",320,146,2.7247139000010066
Pri_ET_Study1_1,M,0/0/1900,2022-06-21_15h17.25.968,210,test,Prioritise1,2,square,triangle,cross,circle,"0.5691306813430501,0.3551652128948415,-1.0","-0.1481252589400609,0.4756545429797898,0.26153874370652797","0.8168605703912253,0.13684827598857496,0.6213530935889016","1.0,-0.20571451687417974,0.18014638001872707",115,212,291,337,"0.8168605703912253,0.13684827598857496,0.6213530935889016",291,"1.0,-0.12765325079304635,-0.8480385611780058",40,258,2.576368799998818
Pri_ET_Study1_1,M,0/0/1900,2022-06-21_15h17.25.968,211,test,Prioritise2,1,triangle,cross,square,circle,"0.3485477954945324,0.4227267056127266,-1.0","-0.14097292288545527,0.4934633616179327,-0.004268922352566595","1.0,0.016090771115826907,0.5120159997035829","1.0,-0.18904346603826983,-0.637249894721835",134,193,307,31,"-0.14097292288545527,0.4934633616179327,-0.004268922352566595",193,"-0.15218698220497417,0.491399065672369,0.0550849709310266",197,251,2.029300799998964
Pri_ET_Study1_1,M,0/0/1900,2022-06-21_15h17.25.968,212,test,Prioritise3,3,circle,triangle,cross,square,"1.0,-0.1694459751095364,-0.6968170409133772","0.1774490411200258,0.4614263698132157,-0.8044096137074778","0.7874973343482177,0.15108074255601633,0.6309286527694675","1.0,-0.27567226916307197,-0.025990342729996674",34,150,289,352,"1.0,-0.27567226916307197,-0.025990342729996674",352,"1.0,-0.265680167273015,0.01659727634298691",349,174,2.4286396999996214
Pri_ET_Study1_1,M,0/0/1900,2022-06-21_15h17.25.968,213,test,Prioritise1,2,square,triangle,cross,circle,"-0.15691856372514257,0.4811251279442219,0.20925454252068332","1.0,-0.023115205136178596,-1.0","1.0,-0.27293323902243416,-0.35332683897484074","0.25011230249462657,0.4464347244570299,-1.0",208,54,14,143,"1.0,-0.27293323902243416,-0.35332683897484074",14,"0.9677931896988998,0.1712594071065523,-1.0",81,309,2.6782430999992357
