id,gender,dob,date,n_trial,test_stage,condition,tested_position,shape_0,shape_1,shape_2,shape_3,color_0,color_1,color_2,color_3,color_angle_0,color_angle_1,color_angle_2,color_angle_3,correct_response,correct_response_angle,response,response_angle,wheel_rotation,reaction_time
Pri_ET_Study1_3,M,0/0/1900,2022-07-07_10h53.12.221,1,practice_pri,Prioritise3,3,triangle,cross,square,circle,"1.0,-0.15254529173699993,0.2813312795320311","0.10691635848548953,0.39815526341168916,0.5740986907036785","0.38240568475417525,0.4136729392938614,-1.0","1.0,-0.18904346603826983,-0.637249894721835",329,243,131,31,"1.0,-0.18904346603826983,-0.637249894721835",31,"1.0,-0.2905679542092485,-0.21635494529981825",5,51,9.597755700000107
Pri_ET_Study1_3,M,0/0/1900,2022-07-07_10h53.12.221,2,practice_pri,Prioritise4,1,triangle,cross,circle,square,"1.0,-0.03828278687151976,-1.0","0.35978173682339754,0.41977397962065344,-1.0","-0.03545149328753128,0.4915787209123279,-0.3069086161051545","1.0,-0.15960027999342463,0.2690977661520819",52,133,174,330,"0.35978173682339754,0.41977397962065344,-1.0",133,"0.003196340864616065,0.48789947231709707,-0.3930376390559923",169,96,18.632295399999975
Pri_ET_Study1_3,M,0/0/1900,2022-07-07_10h53.12.221,3,practice_pri,NoPrioritise,1,triangle,square,cross,circle,"-0.14500574250124976,0.47413711311303364,0.2742570559677715","0.3446475566939091,0.32593623267112437,0.6573177271493604","1.0,-0.2583995670372059,-0.4160170008955538","0.984183681480933,0.0471694796759472,0.544551712303033",213,260,18,303,"0.3446475566939091,0.32593623267112437,0.6573177271493604",260,"1.0,0.12391818455152381,-1.0",74,10,8.085022199999912
Pri_ET_Study1_3,M,0/0/1900,2022-07-07_10h53.12.221,4,practice_pri,Prioritise1,0,square,cross,triangle,circle,"0.9709143462906737,0.05487098646765176,0.5521665648538059","-0.08288077159008311,0.49449913405181634,-0.1914000323192474","0.9342399836420399,0.1906568045828605,-1.0","-0.09355100115627091,0.45554214766479406,0.3928507547204487",302,181,84,223,"0.9709143462906737,0.05487098646765176,0.5521665648538059",302,"0.7481042841002781,0.28401253410301863,-1.0",100,79,2.3883539999999357
Pri_ET_Study1_3,M,0/0/1900,2022-07-07_10h53.12.221,5,practice_pri,Prioritise2,3,cross,square,circle,triangle,"1.0,-0.20571451687417974,0.18014638001872707","-0.12881863109484093,0.46745492896353924,0.32362925960524147","1.0,0.01469043779870538,-1.0","0.37106831880418345,0.41675617985472035,-1.0",337,217,59,132,"0.37106831880418345,0.41675617985472035,-1.0",132,"0.3373683384989987,0.425614728337375,-1.0",135,26,1.6705982999999378
Pri_ET_Study1_3,M,0/0/1900,2022-07-07_10h53.12.221,1,test,Prioritise2,3,triangle,square,cross,circle,"0.49743207809976986,0.2728177294164349,0.672458831583457","0.45139045294854396,0.393779284417197,-1.0","1.0,-0.19319706407583936,0.20612000948251996","1.0,-0.2696580629443429,-0.3688697412252795",270,125,335,15,"1.0,-0.2696580629443429,-0.3688697412252795",15,"1.0,-0.2897135245148047,-0.23135156862016248",6,297,2.0380678000001353
Pri_ET_Study1_3,M,0/0/1900,2022-07-07_10h53.12.221,2,test,Prioritise2,1,square,cross,triangle,circle,"0.4282253351913974,0.40067838587068505,-1.0","1.0,-0.24030349193845646,-0.4804258498410512","0.2419946445565604,0.35840841428502257,0.6316066564714324","1.0,0.12391818455152381,-1.0",127,22,253,74,"1.0,-0.24030349193845646,-0.4804258498410512",22,"1.0,-0.28545618498147696,-0.27665271730440133",9,257,4.090291799999932
Pri_ET_Study1_3,M,0/0/1900,2022-07-07_10h53.12.221,3,test,Prioritise4,3,triangle,circle,cross,square,"0.5453823652594301,0.36344457638027117,-1.0","-0.07663707943429687,0.49424057193593485,-0.2075945922293636","1.0,-0.10580765013847959,-0.9756165541078137","1.0,-0.2914084206358549,-0.1716625835351976",117,180,43,2,"1.0,-0.2914084206358549,-0.1716625835351976",2,"1.0,-0.29111130123666484,-0.15686324257888173",1,76,4.249563300000091
Pri_ET_Study1_3,M,0/0/1900,2022-07-07_10h53.12.221,4,test,Prioritise1,2,triangle,cross,circle,square,"0.7718332302050808,0.2733134055615505,-1.0","0.37478692104604905,0.3159453148278393,0.6623940312376342","1.0,-0.07007995956776203,0.4066709204115653","0.1377313063497616,0.46869198128419454,-0.6923217342230605",98,262,318,154,"1.0,-0.07007995956776203,0.4066709204115653",318,"0.03656203285471027,0.4839890544285097,-0.46499532916065",165,240,3.3083388000000014
Pri_ET_Study1_3,M,0/0/1900,2022-07-07_10h53.12.221,5,test,Prioritise1,2,triangle,circle,cross,square,"0.6364477477613335,0.21838082541010184,0.6641383826852352","1.0,-0.2885749142137033,-0.24639910949319843","1.0,0.12391818455152381,-1.0","-0.07020697204541848,0.49392917223661503,-0.22388609625324785",279,7,74,179,"1.0,0.12391818455152381,-1.0",74,"-0.11850987372908683,0.4637398184337027,0.34737226103556385",219,1,2.5133785999998963
Pri_ET_Study1_3,M,0/0/1900,2022-07-07_10h53.12.221,6,test,Prioritise4,0,circle,square,cross,triangle,"0.8423878648894922,0.2395276862660105,-1.0","1.0,-0.1453950522675579,0.29343624696038684","0.31518019558100097,0.43119815975599396,-1.0","1.0,-0.2541916545294901,-0.43193236346031305",92,328,137,19,"0.8423878648894922,0.2395276862660105,-1.0",92,"0.854028730639278,0.2336538600688729,-1.0",91,246,2.214396099999931
Pri_ET_Study1_3,M,0/0/1900,2022-07-07_10h53.12.221,7,test,NoPrioritise,1,triangle,circle,cross,square,"1.0,-0.0932311933171065,0.374286934875081","-0.04273264564935253,0.4921547641531523,-0.29008164886068233","0.002753009035763032,0.42748599986642954,0.5027340537090634","1.0,-0.2914084206358549,-0.1716625835351976",321,175,234,2,"-0.04273264564935253,0.4921547641531523,-0.29008164886068233",175,"0.1377313063497616,0.46869198128419454,-0.6923217342230605",154,16,2.186618400000043
Pri_ET_Study1_3,M,0/0/1900,2022-07-07_10h53.12.221,8,test,Prioritise4,1,cross,triangle,circle,square,"-0.04273264564935253,0.4921547641531523,-0.29008164886068233","1.0,0.031678509722878445,0.528693730626498","0.7481042841002781,0.28401253410301863,-1.0","-0.007535811164553707,0.4303825516742039,0.4937312314227156",175,305,100,233,"1.0,0.031678509722878445,0.528693730626498",305,"0.011345098196205106,0.4870029319956142,-0.41073039696963887",168,292,2.7619635999999446
Pri_ET_Study1_3,M,0/0/1900,2022-07-07_10h53.12.221,9,test,Prioritise4,1,cross,circle,square,triangle,"-0.1336957186097738,0.49417000388378884,-0.03453353894846056","0.1456375685133382,0.387038501124352,0.5938426811268567","0.7599790593392,0.278698430329378,-1.0","0.8314067698500829,0.129644828397681,0.6162087510840306",191,246,99,292,"0.1456375685133382,0.387038501124352,0.5938426811268567",246,"-0.007535811164553707,0.4303825516742039,0.4937312314227156",233,93,2.0337839000001168
Pri_ET_Study1_3,M,0/0/1900,2022-07-07_10h53.12.221,10,test,Prioritise1,1,circle,square,triangle,cross,"0.2277843781848521,0.3627318956570289,0.6269388339435948","1.0,-0.26238457869240295,-0.4002073564444957","1.0,-0.13815640460244194,0.305409278040333","0.8072476110492377,0.25673500061136667,-1.0",252,17,327,95,"1.0,-0.26238457869240295,-0.4002073564444957",17,"0.40522526965537775,0.4073086888830977,-1.0",129,222,2.539513599999964
Pri_ET_Study1_3,M,0/0/1900,2022-07-07_10h53.12.221,11,test,Prioritise3,0,cross,triangle,square,circle,"1.0,-0.2885749142137033,-0.24639910949319843","-0.04273264564935253,0.4921547641531523,-0.29008164886068233","-0.12881863109484093,0.46745492896353924,0.32362925960524147","0.7362113369355152,0.2892555466706437,-1.0",7,175,217,101,"1.0,-0.2885749142137033,-0.24639910949319843",7,"-0.12538192785381974,0.49466166942996614,-0.0651744334368548",189,130,3.717145900000105
Pri_ET_Study1_3,M,0/0/1900,2022-07-07_10h53.12.221,12,test,NoPrioritise,0,cross,square,triangle,circle,"-0.01269399205840449,0.48953144240138324,-0.3581525544909092","1.0,-0.023115205136178596,-1.0","0.9303101871846857,0.07776559495072588,0.5737236459068971","1.0,-0.27259515439613147,-0.011730747350127468",171,54,299,351,"-0.01269399205840449,0.48953144240138324,-0.3581525544909092",171,"1.0,0.016090771115826907,0.5120159997035829",307,113,2.6223629000000983
Pri_ET_Study1_3,M,0/0/1900,2022-07-07_10h53.12.221,13,test,Prioritise1,3,square,triangle,cross,circle,"0.2563330525591274,0.3540064263668754,0.6360281906414551","1.0,0.10990102188412854,-1.0","-0.07020697204541848,0.49392917223661503,-0.22388609625324785","1.0,-0.17339639938985352,0.2442586263282529",254,72,179,332,"1.0,-0.17339639938985352,0.2442586263282529",332,"0.1997782184249719,0.37114427631595914,0.6168699381761522",250,44,3.239032800000132
Pri_ET_Study1_3,M,0/0/1900,2022-07-07_10h53.12.221,14,test,Prioritise2,2,square,cross,circle,triangle,"0.3262451978832188,0.42843842117143094,-1.0","1.0,-0.12344048141961106,0.3289459564990056","1.0,-0.1694459751095364,-0.6968170409133772","-0.14715582087117385,0.4925402828135286,0.025608434090147236",136,325,34,195,"1.0,-0.1694459751095364,-0.6968170409133772",34,"0.37478692104604905,0.3159453148278393,0.6623940312376342",262,138,6.085441599999967
Pri_ET_Study1_3,M,0/0/1900,2022-07-07_10h53.12.221,15,test,Prioritise2,2,triangle,circle,square,cross,"0.09441071644993415,0.40170970408167506,0.5670564126145141","1.0,-0.24976805918886447,-0.4479639557291707","1.0,-0.10086551076024819,0.3631766774585774","0.5335383805596645,0.36747902832868284,-1.0",242,20,322,118,"1.0,-0.10086551076024819,0.3631766774585774",322,"1.0,-0.24898244687401672,0.0724226931177736",345,336,1.8975379999999404
Pri_ET_Study1_3,M,0/0/1900,2022-07-07_10h53.12.221,16,test,Prioritise2,2,cross,circle,triangle,square,"1.0,0.14454808295369936,-1.0","-0.12085421394465079,0.49482727509491764,-0.08063336981743141","0.35978173682339754,0.41977397962065344,-1.0","0.2563330525591274,0.3540064263668754,0.6360281906414551",77,188,133,254,"0.35978173682339754,0.41977397962065344,-1.0",133,"-0.07020697204541848,0.49392917223661503,-0.22388609625324785",179,222,1.9342709999998533
Pri_ET_Study1_3,M,0/0/1900,2022-07-07_10h53.12.221,17,test,Prioritise2,2,triangle,cross,square,circle,"0.8771865507724368,0.22170185938115816,-1.0","1.0,-0.09100024043058197,-1.0","0.4204673865307198,0.3003640950728248,0.6680936776579738","1.0,-0.25779156666188097,0.04465505589445962",89,45,265,347,"0.4204673865307198,0.3003640950728248,0.6680936776579738",265,"1.0,-0.1558548551326704,-0.7405909184559469",36,172,2.471368499999926
Pri_ET_Study1_3,M,0/0/1900,2022-07-07_10h53.12.221,18,test,Prioritise3,2,triangle,square,circle,cross,"0.9303101871846857,0.07776559495072588,0.5737236459068971","1.0,-0.28545618498147696,-0.27665271730440133","1.0,0.007155954649565421,-1.0","-0.137653653553384,0.47091943313012696,0.2992494234533911",299,9,58,215,"1.0,0.007155954649565421,-1.0",58,"1.0,-0.28849207683894174,-0.11276294357485506",358,347,2.2008675999998104
Pri_ET_Study1_3,M,0/0/1900,2022-07-07_10h53.12.221,19,test,Prioritise3,0,circle,square,cross,triangle,"-0.12538192785381974,0.49466166942996614,-0.0651744334368548","0.5128942075651803,0.26707393527284795,0.6725600501236935","0.2607905457923898,0.44405077031286466,-1.0","0.8656291340184048,0.2277117481201254,-1.0",189,271,142,90,"-0.12538192785381974,0.49466166942996614,-0.0651744334368548",189,"0.7428418032534498,0.17196979648312705,0.6434837115546581",286,16,4.44407410000008
Pri_ET_Study1_3,M,0/0/1900,2022-07-07_10h53.12.221,20,test,Prioritise2,3,square,cross,circle,triangle,"0.41670369996421397,0.40402696808005323,-1.0","-0.15691856372514257,0.4811251279442219,0.20925454252068332","0.9303101871846857,0.07776559495072588,0.5737236459068971","1.0,0.022205290041545256,-1.0",128,208,299,60,"1.0,0.022205290041545256,-1.0",60,"0.6364477477613335,0.21838082541010184,0.6641383826852352",279,161,3.850787500000024
Pri_ET_Study1_3,M,0/0/1900,2022-07-07_10h53.12.221,21,test,Prioritise1,3,square,triangle,cross,circle,"0.3373683384989987,0.425614728337375,-1.0","0.27079222332264496,0.349525727356639,0.6402021298134932","1.0,-0.2352776592018201,-0.4968859262116322","0.9566713411825642,0.17778746275501622,-1.0",135,255,23,82,"0.9566713411825642,0.17778746275501622,-1.0",82,"1.0,-0.00039510366743955583,-1.0",57,71,2.2165688000000046
Pri_ET_Study1_3,M,0/0/1900,2022-07-07_10h53.12.221,22,test,Prioritise4,3,square,triangle,cross,circle,"1.0,0.1513135807267587,-1.0","-0.14715582087117385,0.4925402828135286,0.025608434090147236","1.0,-0.283482916447115,-0.29186272671519153","0.4981526525436166,0.3791643150394166,-1.0",78,195,10,121,"0.4981526525436166,0.3791643150394166,-1.0",121,"0.18759316868675757,0.45946387343509576,-0.8398972692549822",149,139,2.404065500000115
Pri_ET_Study1_3,M,0/0/1900,2022-07-07_10h53.12.221,23,test,Prioritise4,2,square,triangle,circle,cross,"1.0,-0.2696580629443429,-0.3688697412252795","-0.12966480223349675,0.49444262706220066,-0.04980752507879116","0.7127176267031001,0.18557291042394586,0.6506302425082333","0.6646065852612066,0.3192149609683923,-1.0",15,190,284,107,"0.7127176267031001,0.18557291042394586,0.6506302425082333",284,"1.0,-0.26238457869240295,-0.4002073564444957",17,53,5.0216563999999835
Pri_ET_Study1_3,M,0/0/1900,2022-07-07_10h53.12.221,24,test,Prioritise2,2,circle,triangle,cross,square,"1.0,0.07402842417913646,-1.0","1.0,-0.2810383691272422,-0.05469022987079308","0.5453823652594301,0.36344457638027117,-1.0","-0.07020697204541848,0.49392917223661503,-0.22388609625324785",67,354,117,179,"0.5453823652594301,0.36344457638027117,-1.0",117,"0.7362113369355152,0.2892555466706437,-1.0",101,252,2.508652799999936
Pri_ET_Study1_3,M,0/0/1900,2022-07-07_10h53.12.221,25,test,NoPrioritise,0,triangle,cross,circle,square,"-0.15325530146069954,0.47850880592239364,0.23567289266690317","1.0,0.09568719202827336,-1.0","0.38240568475417525,0.4136729392938614,-1.0","1.0,-0.24976805918886447,-0.4479639557291707",210,70,131,20,"-0.15325530146069954,0.47850880592239364,0.23567289266690317",210,"0.07186027412725471,0.47920645949573504,-0.5409731165987569",161,322,5.088468499999863
Pri_ET_Study1_3,M,0/0/1900,2022-07-07_10h53.12.221,26,test,NoPrioritise,3,square,circle,triangle,cross,"0.002753009035763032,0.42748599986642954,0.5027340537090634","0.45139045294854396,0.393779284417197,-1.0","1.0,0.1377261376429495,-1.0","1.0,-0.25349859092244853,0.058576446168723484",234,125,76,346,"1.0,-0.25349859092244853,0.058576446168723484",346,"1.0,-0.05449202187079283,0.427438243059558",316,44,2.686858999999913
Pri_ET_Study1_3,M,0/0/1900,2022-07-07_10h53.12.221,27,test,Prioritise2,3,triangle,circle,cross,square,"0.9566713411825642,0.17778746275501622,-1.0","-0.0864279937772866,0.4533299305616785,0.40378459741649797","-0.020427730643879483,0.49026716567376205,-0.3409363637973366","1.0,-0.24030349193845646,-0.4804258498410512",82,224,172,22,"1.0,-0.24030349193845646,-0.4804258498410512",22,"0.6210691465439071,0.22472865664823272,0.6660842894513506",278,38,2.5859424000000217
Pri_ET_Study1_3,M,0/0/1900,2022-07-07_10h53.12.221,28,test,Prioritise1,0,circle,triangle,cross,square,"0.013319861281873457,0.4245182348375207,0.5115287599103473","0.7599790593392,0.278698430329378,-1.0","1.0,-0.19952917352700617,0.19318579588388318","0.0809641014742315,0.4778728517952051,-0.560834903418019",235,99,336,160,"0.013319861281873457,0.4245182348375207,0.5115287599103473",235,"1.0,-0.17339639938985352,0.2442586263282529",332,274,1.5982468999998218
Pri_ET_Study1_3,M,0/0/1900,2022-07-07_10h53.12.221,29,test,Prioritise1,3,circle,cross,square,triangle,"1.0,-0.03828278687151976,-1.0","1.0,-0.24425036060701033,0.08619108045783674","-0.10043403746491275,0.49495767021285575,-0.14337977127983403","0.2715377535601935,0.44160513045338035,-1.0",52,344,184,141,"0.2715377535601935,0.44160513045338035,-1.0",141,"-0.15857178695416452,0.48845422840718666,0.1127707600476957",201,55,2.55396410000003
Pri_ET_Study1_3,M,0/0/1900,2022-07-07_10h53.12.221,30,test,Prioritise4,1,square,cross,circle,triangle,"1.0,-0.2810383691272422,-0.05469022987079308","0.3148218664135791,0.3356097028178475,0.6512264970146455","0.45139045294854396,0.393779284417197,-1.0","-0.15691856372514257,0.4811251279442219,0.20925454252068332",354,258,125,208,"0.3148218664135791,0.3356097028178475,0.6512264970146455",258,"1.0,-0.12042756170577695,-0.8836340589512358",41,181,5.037381500000038
Pri_ET_Study1_3,M,0/0/1900,2022-07-07_10h53.12.221,31,test,NoPrioritise,2,square,circle,cross,triangle,"0.002753009035763032,0.42748599986642954,0.5027340537090634","1.0,-0.03882752461224859,0.44751763152896373","0.7836643519746782,0.2678576623980824,-1.0","0.2715377535601935,0.44160513045338035,-1.0",234,314,97,141,"0.7836643519746782,0.2678576623980824,-1.0",97,"0.003196340864616065,0.48789947231709707,-0.3930376390559923",169,255,3.1278171000001294
Pri_ET_Study1_3,M,0/0/1900,2022-07-07_10h53.12.221,32,test,Prioritise1,3,circle,triangle,cross,square,"1.0,0.023895135487088437,0.520455959599228","1.0,-0.12765325079304635,-0.8480385611780058","-0.07020697204541848,0.49392917223661503,-0.22388609625324785","0.40522526965537775,0.4073086888830977,-1.0",306,40,179,129,"0.40522526965537775,0.4073086888830977,-1.0",129,"-0.004817967995419115,0.4887422579776717,-0.37551595656205394",170,284,5.037242800000058
Pri_ET_Study1_3,M,0/0/1900,2022-07-07_10h53.12.221,33,test,Prioritise4,0,cross,circle,triangle,square,"-0.0864279937772866,0.4533299305616785,0.40378459741649797","0.43579397082986615,0.29501209376045523,0.6694809165992386","1.0,0.008268781307839035,0.5033766660072689","-0.07020697204541848,0.49392917223661503,-0.22388609625324785",224,266,308,179,"-0.0864279937772866,0.4533299305616785,0.40378459741649797",224,"-0.0864279937772866,0.4533299305616785,0.40378459741649797",224,60,4.546627100000023
Pri_ET_Study1_3,M,0/0/1900,2022-07-07_10h53.12.221,34,test,NoPrioritise,2,cross,circle,square,triangle,"0.07186027412725471,0.47920645949573504,-0.5409731165987569","0.7127176267031001,0.18557291042394586,0.6506302425082333","1.0,0.04460337025072447,-1.0","-0.1552691192795369,0.47984650043174004,0.22253130766167373",161,284,63,209,"1.0,0.04460337025072447,-1.0",63,"1.0,-0.12765325079304635,-0.8480385611780058",40,208,2.098020099999985
Pri_ET_Study1_3,M,0/0/1900,2022-07-07_10h53.12.221,35,test,Prioritise3,2,circle,cross,triangle,square,"-0.07663707943429687,0.49424057193593485,-0.2075945922293636","0.10691635848548953,0.39815526341168916,0.5740986907036785","0.8886984490493344,0.21562474761751438,-1.0","0.7578023835242338,0.165070026077772,0.63954193062201",180,243,88,287,"0.8886984490493344,0.21562474761751438,-1.0",88,"1.0,-0.030699357614306977,-1.0",53,248,1.8681086999999934
Pri_ET_Study1_3,M,0/0/1900,2022-07-07_10h53.12.221,36,test,Prioritise4,3,circle,triangle,cross,square,"1.0,-0.2853220527670477,-0.0836186653125478","1.0,-0.1558548551326704,-0.7405909184559469","-0.11280811015512238,0.4617870748317987,0.35899735609320693","0.15741439024530024,0.4651753747362595,-0.7441898531558468",356,36,220,152,"0.15741439024530024,0.4651753747362595,-0.7441898531558468",152,"0.19781922438295352,0.4574422518266765,-0.8818361039644314",148,63,3.8226788999998007
Pri_ET_Study1_3,M,0/0/1900,2022-07-07_10h53.12.221,37,test,NoPrioritise,2,triangle,circle,cross,square,"1.0,0.13084904670314157,-1.0","1.0,0.031678509722878445,0.528693730626498","0.3262451978832188,0.42843842117143094,-1.0","-0.11280811015512238,0.4617870748317987,0.35899735609320693",75,305,136,220,"0.3262451978832188,0.42843842117143094,-1.0",136,"-0.045760705841983884,0.4412666063320212,0.45569155140365925",229,341,5.271472500000073
Pri_ET_Study1_3,M,0/0/1900,2022-07-07_10h53.12.221,38,test,Prioritise2,2,square,cross,circle,triangle,"0.8602068900008202,0.11507220116757,0.6052161878467197","0.14752787305018233,0.4669625621869047,-0.7174796825499677","1.0,-0.22467733398512213,-0.5303566464837048","1.0,-0.23416809090988489,0.11348302116348141",294,153,25,342,"1.0,-0.22467733398512213,-0.5303566464837048",25,"1.0,-0.24976805918886447,-0.4479639557291707",20,71,2.5552844999999706
Pri_ET_Study1_3,M,0/0/1900,2022-07-07_10h53.12.221,39,test,Prioritise1,2,circle,cross,square,triangle,"1.0,0.031678509722878445,0.528693730626498","0.7954699681646173,0.26233143705175754,-1.0","-0.06301515924349677,0.44629443292921844,0.43549282839157066","-0.08288077159008311,0.49449913405181634,-0.1914000323192474",305,96,227,181,"-0.06301515924349677,0.44629443292921844,0.43549282839157066",227,"0.024156992038590452,0.42147876676365525,0.5201127943356356",236,29,1.9562579999999343
Pri_ET_Study1_3,M,0/0/1900,2022-07-07_10h53.12.221,40,test,Prioritise2,0,cross,square,circle,triangle,"-0.03665861455697994,0.4386499069954206,0.4655003413302212","1.0,-0.07783297952557244,0.3960373748090056","0.29323185337982705,0.4365272844863326,-1.0","1.0,-0.2541916545294901,-0.43193236346031305",230,319,139,19,"-0.03665861455697994,0.4386499069954206,0.4655003413302212",230,"0.002753009035763032,0.42748599986642954,0.5027340537090634",234,131,2.1999706000001424
Pri_ET_Study1_3,M,0/0/1900,2022-07-07_10h53.12.221,41,test,Prioritise4,2,circle,square,cross,triangle,"1.0,-0.25349859092244853,0.058576446168723484","0.5217173616076898,0.3714436344565344,-1.0","1.0,-0.060989074760531836,-1.0","-0.15745197328482874,0.48927392525561153,0.09851328502402845",346,119,49,200,"1.0,-0.060989074760531836,-1.0",49,"1.0,-0.12042756170577695,-0.8836340589512358",41,181,1.7537529999999606
Pri_ET_Study1_3,M,0/0/1900,2022-07-07_10h53.12.221,42,test,Prioritise4,3,circle,triangle,square,cross,"1.0,-0.14892208927791584,-0.7642951287839744","-0.020427730643879483,0.49026716567376205,-0.3409363637973366","0.8189948021797893,0.2510686603392729,-1.0","1.0,-0.25779156666188097,0.04465505589445962",37,172,94,347,"1.0,-0.25779156666188097,0.04465505589445962",347,"1.0,-0.023115205136178596,-1.0",54,80,2.5123449000000164
Pri_ET_Study1_3,M,0/0/1900,2022-07-07_10h53.12.221,43,test,Prioritise1,2,cross,square,circle,triangle,"0.8656291340184048,0.2277117481201254,-1.0","0.3446475566939091,0.32593623267112437,0.6573177271493604","1.0,-0.2618543528600009,0.0306611530728087","0.30417514509994215,0.43389432139899475,-1.0",90,260,348,138,"1.0,-0.2618543528600009,0.0306611530728087",348,"1.0,-0.023115205136178596,-1.0",54,261,3.9559342000000015
Pri_ET_Study1_3,M,0/0/1900,2022-07-07_10h53.12.221,44,test,Prioritise3,3,circle,triangle,cross,square,"-0.137653653553384,0.47091943313012696,0.2992494234533911","0.9973143857544444,0.03943765994348003,0.5367265506444097","0.8423878648894922,0.2395276862660105,-1.0","0.05398205218015839,0.48170764156945833,-0.5023703861935837",215,304,92,163,"0.05398205218015839,0.48170764156945833,-0.5023703861935837",163,"0.0809641014742315,0.4778728517952051,-0.560834903418019",160,340,4.661896299999853
Pri_ET_Study1_3,M,0/0/1900,2022-07-07_10h53.12.221,45,test,Prioritise2,0,triangle,cross,square,circle,"0.6823545184579658,0.19890605819631269,0.6567852503614975","1.0,-0.2117453636986133,0.16700499532847024","-0.137653653553384,0.47091943313012696,0.2992494234533911","1.0,-0.015534070910116049,-1.0",282,338,215,55,"0.6823545184579658,0.19890605819631269,0.6567852503614975",282,"1.0,-0.29111130123666484,-0.15686324257888173",1,335,3.8822646999999506
Pri_ET_Study1_3,M,0/0/1900,2022-07-07_10h53.12.221,46,test,NoPrioritise,3,square,circle,cross,triangle,"1.0,-0.11314379054822865,-0.9277147292103822","0.003196340864616065,0.48789947231709707,-0.3930376390559923","1.0,-0.289651960671372,-0.12741280502186536","0.8314067698500829,0.129644828397681,0.6162087510840306",42,169,359,292,"0.8314067698500829,0.129644828397681,0.6162087510840306",292,"0.1377313063497616,0.46869198128419454,-0.6923217342230605",154,66,2.2786211000000094
Pri_ET_Study1_3,M,0/0/1900,2022-07-07_10h53.12.221,47,test,Prioritise4,1,triangle,cross,circle,square,"0.40522526965537775,0.4073086888830977,-1.0","0.6364477477613335,0.21838082541010184,0.6641383826852352","0.9566713411825642,0.17778746275501622,-1.0","-0.03665861455697994,0.4386499069954206,0.4655003413302212",129,279,82,230,"0.6364477477613335,0.21838082541010184,0.6641383826852352",279,"0.7726890832158932,0.15810653737494773,0.6353563968956581",288,53,3.4701506999999765
Pri_ET_Study1_3,M,0/0/1900,2022-07-07_10h53.12.221,48,test,NoPrioritise,0,cross,square,triangle,circle,"0.1377313063497616,0.46869198128419454,-0.6923217342230605","1.0,0.03716450464441401,-1.0","1.0,-0.28715474606071,-0.26149890951485844","0.5593128013847881,0.24938009178326226,0.6713213889936891",154,62,8,274,"0.1377313063497616,0.46869198128419454,-0.6923217342230605",154,"0.019624625934283157,0.48605247051678724,-0.428609032695351",167,293,1.8059468999999808
Pri_ET_Study1_3,M,0/0/1900,2022-07-07_10h53.12.221,49,test,Prioritise3,0,triangle,square,circle,cross,"-0.15325530146069954,0.47850880592239364,0.23567289266690317","0.8072476110492377,0.25673500061136667,-1.0","0.32969209843730707,0.3308126345090221,0.6543985772501693","1.0,-0.03828278687151976,-1.0",210,95,259,52,"-0.15325530146069954,0.47850880592239364,0.23567289266690317",210,"-0.15601024525342333,0.4900377710624384,0.08414494382818494",199,164,4.12547010000003
Pri_ET_Study1_3,M,0/0/1900,2022-07-07_10h53.12.221,50,test,Prioritise3,1,circle,cross,square,triangle,"-0.0889322071979689,0.49470485377678974,-0.17530036558846096","1.0,-0.12344048141961106,0.3289459564990056","1.0,-0.07604755533137741,-1.0","0.4397882380638529,0.39726260220805054,-1.0",182,325,47,126,"1.0,-0.12344048141961106,0.3289459564990056",325,"0.984183681480933,0.0471694796759472,0.544551712303033",303,227,8.217832600000065
Pri_ET_Study1_3,M,0/0/1900,2022-07-07_10h53.12.221,51,test,Prioritise2,1,triangle,cross,square,circle,"0.5929450132200651,0.3466038519932022,-1.0","0.8168605703912253,0.13684827598857496,0.6213530935889016","-0.137653653553384,0.47091943313012696,0.2992494234533911","1.0,-0.1801231371030828,0.23165973332613699",113,291,215,333,"0.8168605703912253,0.13684827598857496,0.6213530935889016",291,"0.43579397082986615,0.29501209376045523,0.6694809165992386",266,214,2.784014500000012
Pri_ET_Study1_3,M,0/0/1900,2022-07-07_10h53.12.221,52,test,Prioritise4,0,triangle,square,circle,cross,"0.697563521415238,0.19227379976898162,0.6538323072937366","0.37106831880418345,0.41675617985472035,-1.0","1.0,-0.12765325079304635,-0.8480385611780058","0.04661056885000425,0.4151827959781793,0.5366388806382338",283,132,40,238,"0.697563521415238,0.19227379976898162,0.6538323072937366",283,"0.1997782184249719,0.37114427631595914,0.6168699381761522",250,201,2.665999499999998
Pri_ET_Study1_3,M,0/0/1900,2022-07-07_10h53.12.221,53,test,Prioritise1,0,circle,square,cross,triangle,"1.0,-0.16269839246793216,-0.7181852224820324","-0.028015013033697245,0.49094955428922593,-0.32385780920023366","0.09441071644993415,0.40170970408167506,0.5670564126145141","0.8423878648894922,0.2395276862660105,-1.0",35,173,242,92,"1.0,-0.16269839246793216,-0.7181852224820324",35,"1.0,-0.2759589912597996,-0.3378595329546661",13,316,2.131671499999811
Pri_ET_Study1_3,M,0/0/1900,2022-07-07_10h53.12.221,54,test,Prioritise1,1,circle,triangle,square,cross,"1.0,0.0520116041796701,-1.0","1.0,-0.29113614091237483,-0.20140827106110581","0.13253781604398185,0.3908200528647623,0.5874938236427092","0.45139045294854396,0.393779284417197,-1.0",64,4,245,125,"1.0,-0.29113614091237483,-0.20140827106110581",4,"0.22896995211020998,0.45101907426419996,-1.0",145,314,2.2405805000003056
Pri_ET_Study1_3,M,0/0/1900,2022-07-07_10h53.12.221,55,test,Prioritise3,2,circle,triangle,square,cross,"1.0,-0.03828278687151976,-1.0","1.0,-0.15960027999342463,0.2690977661520819","0.03656203285471027,0.4839890544285097,-0.46499532916065","-0.15087465470231598,0.47711162872615454,0.24867635980838454",52,330,165,211,"0.03656203285471027,0.4839890544285097,-0.46499532916065",165,"0.09948789533259128,0.47503830359136323,-0.601955130836429",158,294,8.133182999999917
Pri_ET_Study1_3,M,0/0/1900,2022-07-07_10h53.12.221,56,test,Prioritise1,1,circle,triangle,square,cross,"0.7954699681646173,0.26233143705175754,-1.0","-0.1334211421392112,0.46921826779504494,0.31151742599586085","1.0,-0.23930972970484676,0.09987881270213972","1.0,-0.16269839246793216,-0.7181852224820324",96,216,343,35,"-0.1334211421392112,0.46921826779504494,0.31151742599586085",216,"0.07186027412725471,0.47920645949573504,-0.5409731165987569",161,213,7.447588800000176
Pri_ET_Study1_3,M,0/0/1900,2022-07-07_10h53.12.221,57,test,Prioritise4,2,square,cross,triangle,circle,"-0.15218698220497417,0.491399065672369,0.0550849709310266","0.4819850074232215,0.2784837623913883,0.6721002952002628","1.0,0.11693500061052231,-1.0","0.23950483221035568,0.4487573681220651,-1.0",197,269,73,144,"1.0,0.11693500061052231,-1.0",73,"1.0,0.0520116041796701,-1.0",64,55,3.0830857999999353
Pri_ET_Study1_3,M,0/0/1900,2022-07-07_10h53.12.221,58,test,Prioritise4,2,triangle,cross,square,circle,"0.5128942075651803,0.26707393527284795,0.6725600501236935","0.8423878648894922,0.2395276862660105,-1.0","-0.03545149328753128,0.4915787209123279,-0.3069086161051545","1.0,-0.2784883645829067,-0.04031082501765193",271,92,174,353,"-0.03545149328753128,0.4915787209123279,-0.3069086161051545",174,"0.08211922552252782,0.40518924666980105,0.5597871012004456",241,178,3.1136295999999675
Pri_ET_Study1_3,M,0/0/1900,2022-07-07_10h53.12.221,59,test,Prioritise3,3,circle,triangle,square,cross,"0.32969209843730707,0.3308126345090221,0.6543985772501693","-0.12538192785381974,0.49466166942996614,-0.0651744334368548","1.0,-0.17339639938985352,0.2442586263282529","0.4282253351913974,0.40067838587068505,-1.0",259,189,332,127,"0.4282253351913974,0.40067838587068505,-1.0",127,"0.09948789533259128,0.47503830359136323,-0.601955130836429",158,56,2.6839303999995536
Pri_ET_Study1_3,M,0/0/1900,2022-07-07_10h53.12.221,60,test,Prioritise3,1,triangle,circle,square,cross,"0.002753009035763032,0.42748599986642954,0.5027340537090634","1.0,-0.0855518419522695,0.38524161028667625","1.0,-0.21911833444213913,-0.5474132739956148","0.05398205218015839,0.48170764156945833,-0.5023703861935837",234,320,26,163,"1.0,-0.0855518419522695,0.38524161028667625",320,"1.0,0.03716450464441401,-1.0",62,18,1.9894223999999667
Pri_ET_Study1_3,M,0/0/1900,2022-07-07_10h53.12.221,61,test,Prioritise3,3,square,circle,triangle,cross,"-0.10587186235375057,0.4950046804635242,-0.12755688133261178","1.0,-0.2897135245148047,-0.23135156862016248","0.8423878648894922,0.2395276862660105,-1.0","0.3373683384989987,0.425614728337375,-1.0",185,6,92,135,"0.3373683384989987,0.425614728337375,-1.0",135,"0.15891936573799903,0.3831804895186659,0.5999565135488085",247,100,1.7614631999999801
Pri_ET_Study1_3,M,0/0/1900,2022-07-07_10h53.12.221,62,test,Prioritise4,0,square,cross,triangle,circle,"0.5902286499321849,0.2372037618456999,0.6692134526599127","1.0,-0.2853220527670477,-0.0836186653125478","-0.137653653553384,0.47091943313012696,0.2992494234533911","0.47470490157818523,0.38660875671905104,-1.0",276,356,215,123,"0.5902286499321849,0.2372037618456999,0.6692134526599127",276,"0.43579397082986615,0.29501209376045523,0.6694809165992386",266,311,2.066720200000418
Pri_ET_Study1_3,M,0/0/1900,2022-07-07_10h53.12.221,63,test,NoPrioritise,1,circle,triangle,cross,square,"1.0,-0.12765325079304635,-0.8480385611780058","1.0,-0.2692625012388049,0.0024658652101630096","0.7362113369355152,0.2892555466706437,-1.0","0.3148218664135791,0.3356097028178475,0.6512264970146455",40,350,101,258,"1.0,-0.2692625012388049,0.0024658652101630096",350,"1.0,-0.2885749142137033,-0.24639910949319843",7,94,6.785907299999963
Pri_ET_Study1_3,M,0/0/1900,2022-07-07_10h53.12.221,64,test,Prioritise4,1,cross,square,circle,triangle,"0.49743207809976986,0.2728177294164349,0.672458831583457","1.0,-0.10844910144201803,0.3519141850209708","-0.14097292288545527,0.4934633616179327,-0.004268922352566595","0.9788490541088481,0.1646703741338249,-1.0",270,323,193,80,"1.0,-0.10844910144201803,0.3519141850209708",323,"0.7578023835242338,0.165070026077772,0.63954193062201",287,123,2.0303633000003174
Pri_ET_Study1_3,M,0/0/1900,2022-07-07_10h53.12.221,65,test,NoPrioritise,1,square,triangle,cross,circle,"1.0,-0.18904346603826983,-0.637249894721835","-0.11280811015512238,0.4617870748317987,0.35899735609320693","1.0,-0.23416809090988489,0.11348302116348141","0.4665589352747248,0.2840716923699367,0.6714844115718321",31,220,342,268,"-0.11280811015512238,0.4617870748317987,0.35899735609320693",220,"-0.12881863109484093,0.46745492896353924,0.32362925960524147",217,282,2.33609209999986
Pri_ET_Study1_3,M,0/0/1900,2022-07-07_10h53.12.221,66,test,Prioritise2,3,cross,circle,triangle,square,"1.0,-0.2885749142137033,-0.24639910949319843","0.5438403016684124,0.25535465854340766,0.6719910833849003","0.37106831880418345,0.41675617985472035,-1.0","1.0,-0.12344048141961106,0.3289459564990056",7,273,132,325,"1.0,-0.12344048141961106,0.3289459564990056",325,"-0.07663707943429687,0.49424057193593485,-0.2075945922293636",180,311,2.599590100000114
Pri_ET_Study1_3,M,0/0/1900,2022-07-07_10h53.12.221,67,test,Prioritise2,3,cross,square,circle,triangle,"0.5747774279545166,0.24332959852807035,0.670395358395977","1.0,-0.27293323902243416,-0.35332683897484074","0.019624625934283157,0.48605247051678724,-0.428609032695351","-0.0864279937772866,0.4533299305616785,0.40378459741649797",275,14,167,224,"-0.0864279937772866,0.4533299305616785,0.40378459741649797",224,"1.0,-0.10580765013847959,-0.9756165541078137",43,295,4.158707999999933
Pri_ET_Study1_3,M,0/0/1900,2022-07-07_10h53.12.221,68,test,NoPrioritise,0,square,triangle,circle,cross,"1.0,-0.1558548551326704,-0.7405909184559469","0.5128942075651803,0.26707393527284795,0.6725600501236935","0.5217173616076898,0.3714436344565344,-1.0","-0.15971287347422924,0.4846106035432911,0.16864202556096686",36,271,119,205,"1.0,-0.1558548551326704,-0.7405909184559469",36,"1.0,-0.2897135245148047,-0.23135156862016248",6,279,6.4866485000002285
Pri_ET_Study1_3,M,0/0/1900,2022-07-07_10h53.12.221,69,test,Prioritise1,3,triangle,cross,square,circle,"0.3148218664135791,0.3356097028178475,0.6512264970146455","1.0,-0.1308360377071882,0.3172469791017578","1.0,-0.2583995670372059,-0.4160170008955538","0.09948789533259128,0.47503830359136323,-0.601955130836429",258,326,18,158,"0.09948789533259128,0.47503830359136323,-0.601955130836429",158,"-0.11109230792064029,0.494998675286374,-0.11182488810932678",186,320,4.672373300000345
Pri_ET_Study1_3,M,0/0/1900,2022-07-07_10h53.12.221,70,test,Prioritise2,3,cross,square,triangle,circle,"1.0,-0.20752138035248524,-0.5823144238115788","0.9165223056430671,0.08531838961047389,0.5804719469242157","-0.1598212484830719,0.4866460428277808,0.1409432704458322","0.6885060196604067,0.3095143481419429,-1.0",28,298,203,105,"0.6885060196604067,0.3095143481419429,-1.0",105,"-0.05454842094763246,0.44381461100324726,0.4456881091586087",228,2,4.280549699999938
Pri_ET_Study1_3,M,0/0/1900,2022-07-07_10h53.12.221,71,test,Prioritise1,2,triangle,cross,circle,square,"-0.09355100115627091,0.45554214766479406,0.3928507547204487","0.6670955436242052,0.20546863097446266,0.6594879335101997","0.5691306813430501,0.3551652128948415,-1.0","1.0,-0.21911833444213913,-0.5474132739956148",223,281,115,26,"0.5691306813430501,0.3551652128948415,-1.0",115,"0.4981526525436166,0.3791643150394166,-1.0",121,150,4.488411199999973
Pri_ET_Study1_3,M,0/0/1900,2022-07-07_10h53.12.221,72,test,Prioritise2,1,cross,circle,triangle,square,"1.0,-0.23006636068103248,-0.5135224369802548","0.08211922552252782,0.40518924666980105,0.5597871012004456","0.8744524420551003,0.1077067653533772,0.5993718879433354","0.9898363577373541,0.15802139914365565,-1.0",24,241,295,79,"0.08211922552252782,0.40518924666980105,0.5597871012004456",241,"-0.10032491436032498,0.45768874039972984,0.3817396096664756",222,245,2.583922199999961
Pri_ET_Study1_3,M,0/0/1900,2022-07-07_10h53.12.221,73,test,NoPrioritise,0,cross,circle,square,triangle,"1.0,-0.2812391217555803,-0.30713162009795525","-0.05680994196765965,0.4931478034098584,-0.2567707460520542","1.0,0.022205290041545256,-1.0","0.5335383805596645,0.36747902832868284,-1.0",11,177,60,118,"1.0,-0.2812391217555803,-0.30713162009795525",11,"1.0,-0.26238457869240295,-0.4002073564444957",17,49,3.5140533999997388
Pri_ET_Study1_3,M,0/0/1900,2022-07-07_10h53.12.221,74,test,Prioritise1,0,triangle,circle,cross,square,"0.2715377535601935,0.44160513045338035,-1.0","1.0,-0.09842467873037941,-1.0","1.0,-0.2618543528600009,0.0306611530728087","0.8314067698500829,0.129644828397681,0.6162087510840306",141,44,348,292,"0.2715377535601935,0.44160513045338035,-1.0",141,"-0.12085421394465079,0.49482727509491764,-0.08063336981743141",188,200,6.221319700000095
Pri_ET_Study1_3,M,0/0/1900,2022-07-07_10h53.12.221,75,test,Prioritise3,3,triangle,circle,square,cross,"1.0,0.01469043779870538,-1.0","-0.15425303278284086,0.49074605836511664,0.06966808771232391","0.5593128013847881,0.24938009178326226,0.6713213889936891","1.0,-0.24898244687401672,0.0724226931177736",59,198,274,345,"1.0,-0.24898244687401672,0.0724226931177736",345,"1.0,-0.12344048141961106,0.3289459564990056",325,42,2.382281300000159
Pri_ET_Study1_3,M,0/0/1900,2022-07-07_10h53.12.221,76,test,Prioritise2,0,square,cross,circle,triangle,"0.3000437839717358,0.34032750492681907,0.6478023910819077","1.0,-0.24513616553833184,-0.4641238358039159","1.0,-0.04666697700988032,0.4375655321668761","0.1673887875274096,0.46333008938060627,-0.7729226224565875",257,21,315,151,"0.3000437839717358,0.34032750492681907,0.6478023910819077",257,"0.7278119810668549,0.17880451220180715,0.6471802765379799",285,231,2.045812500000011
Pri_ET_Study1_3,M,0/0/1900,2022-07-07_10h53.12.221,77,test,Prioritise1,0,triangle,square,circle,cross,"0.2715377535601935,0.44160513045338035,-1.0","1.0,-0.06852917744512788,-1.0","0.7874973343482177,0.15108074255601633,0.6309286527694675","0.09441071644993415,0.40170970408167506,0.5670564126145141",141,48,289,242,"0.2715377535601935,0.44160513045338035,-1.0",141,"0.21850949126575658,0.4532202130288874,-0.9933869065076532",146,2,2.352213699999993
Pri_ET_Study1_3,M,0/0/1900,2022-07-07_10h53.12.221,78,test,NoPrioritise,1,triangle,circle,cross,square,"-0.004817967995419115,0.4887422579776717,-0.37551595656205394","1.0,-0.03882752461224859,0.44751763152896373","1.0,0.01469043779870538,-1.0","1.0,-0.27293323902243416,-0.35332683897484074",170,314,59,14,"1.0,-0.03882752461224859,0.44751763152896373",314,"0.11962807502985351,0.3945255124543332,0.5809118383777745",244,125,2.303408899999795
Pri_ET_Study1_3,M,0/0/1900,2022-07-07_10h53.12.221,79,test,Prioritise3,2,circle,cross,triangle,square,"1.0,-0.00039510366743955583,-1.0","0.37478692104604905,0.3159453148278393,0.6623940312376342","0.15741439024530024,0.4651753747362595,-0.7441898531558468","1.0,0.00043266500642058503,0.4945408245860483",57,262,152,309,"0.15741439024530024,0.4651753747362595,-0.7441898531558468",152,"0.09948789533259128,0.47503830359136323,-0.601955130836429",158,92,5.398006600000372
Pri_ET_Study1_3,M,0/0/1900,2022-07-07_10h53.12.221,80,test,Prioritise2,0,triangle,cross,circle,square,"-0.11109230792064029,0.494998675286374,-0.11182488810932678","0.6364477477613335,0.21838082541010184,0.6641383826852352","1.0,-0.1801231371030828,0.23165973332613699","0.8307090529045498,0.2453327610063578,-1.0",186,279,333,93,"-0.11109230792064029,0.494998675286374,-0.11182488810932678",186,"-0.08288077159008311,0.49449913405181634,-0.1914000323192474",181,97,3.008974599999874
Pri_ET_Study1_3,M,0/0/1900,2022-07-07_10h53.12.221,81,test,Prioritise4,1,circle,triangle,cross,square,"-0.03545149328753128,0.4915787209123279,-0.3069086161051545","0.9165223056430671,0.08531838961047389,0.5804719469242157","0.4864131283203974,0.38292092452220805,-1.0","1.0,-0.08353952619481586,-1.0",174,298,122,46,"0.9165223056430671,0.08531838961047389,0.5804719469242157",298,"-0.10032491436032498,0.45768874039972984,0.3817396096664756",222,226,2.599439699999948
Pri_ET_Study1_3,M,0/0/1900,2022-07-07_10h53.12.221,82,test,NoPrioritise,2,cross,square,triangle,circle,"0.6407010103455535,0.32862970770224886,-1.0","-0.15857178695416452,0.48845422840718666,0.1127707600476957","0.8602068900008202,0.11507220116757,0.6052161878467197","1.0,-0.21911833444213913,-0.5474132739956148",109,201,294,26,"0.8602068900008202,0.11507220116757,0.6052161878467197",294,"0.5283655398475315,0.26125276704655587,0.6724040666408482",272,253,1.9543493999999555
Pri_ET_Study1_3,M,0/0/1900,2022-07-07_10h53.12.221,83,test,NoPrioritise,1,cross,square,circle,triangle,"1.0,-0.19533700364355222,-0.6185256211936343","1.0,0.023895135487088437,0.520455959599228","-0.12085421394465079,0.49482727509491764,-0.08063336981743141","0.29323185337982705,0.4365272844863326,-1.0",30,306,188,139,"1.0,0.023895135487088437,0.520455959599228",306,"1.0,-0.05449202187079283,0.427438243059558",316,117,4.78376070000013
Pri_ET_Study1_3,M,0/0/1900,2022-07-07_10h53.12.221,84,test,NoPrioritise,2,triangle,square,circle,cross,"-0.017538974095646753,0.43320838581829424,0.48452289736445553","-0.07020697204541848,0.49392917223661503,-0.22388609625324785","1.0,0.008268781307839035,0.5033766660072689","0.40522526965537775,0.4073086888830977,-1.0",232,179,308,129,"1.0,0.008268781307839035,0.5033766660072689",308,"1.0,-0.27259515439613147,-0.011730747350127468",351,357,2.4972751000000244
Pri_ET_Study1_3,M,0/0/1900,2022-07-07_10h53.12.221,85,test,Prioritise1,0,square,cross,triangle,circle,"0.19781922438295352,0.4574422518266765,-0.8818361039644314","1.0,0.03716450464441401,-1.0","1.0,-0.05449202187079283,0.427438243059558","-0.1582066093163167,0.48234509352938293,0.19584550247902222",148,62,316,207,"0.19781922438295352,0.4574422518266765,-0.8818361039644314",148,"-0.028015013033697245,0.49094955428922593,-0.32385780920023366",173,348,2.7832892999999785
Pri_ET_Study1_3,M,0/0/1900,2022-07-07_10h53.12.221,86,test,Prioritise2,0,cross,square,circle,triangle,"-0.08288077159008311,0.49449913405181634,-0.1914000323192474","1.0,0.031678509722878445,0.528693730626498","0.35968141037855483,0.3209804608831912,0.6599831247203418","1.0,-0.2787294505909397,-0.3224626175099854",181,305,261,12,"-0.08288077159008311,0.49449913405181634,-0.1914000323192474",181,"-0.04985376064386149,0.4926777683571715,-0.2733707743273047",176,67,4.6581450000003315
Pri_ET_Study1_3,M,0/0/1900,2022-07-07_10h53.12.221,87,test,Prioritise2,3,square,cross,circle,triangle,"-0.14715582087117385,0.4925402828135286,0.025608434090147236","0.41670369996421397,0.40402696808005323,-1.0","1.0,-0.24425036060701033,0.08619108045783674","0.4204673865307198,0.3003640950728248,0.6680936776579738",195,128,344,265,"0.4204673865307198,0.3003640950728248,0.6680936776579738",265,"0.058211064666331636,0.41192535001918484,0.5445760826660213",239,75,2.3897250999998505
Pri_ET_Study1_3,M,0/0/1900,2022-07-07_10h53.12.221,88,test,NoPrioritise,2,triangle,cross,circle,square,"0.6517915958318632,0.21196052870658733,0.661939301509457","1.0,-0.21761393967782516,0.1537648375256555","-0.14715582087117385,0.4925402828135286,0.025608434090147236","1.0,-0.2133971103908915,-0.5647212078646006",280,339,195,27,"-0.14715582087117385,0.4925402828135286,0.025608434090147236",195,"-0.15087465470231598,0.47711162872615454,0.24867635980838454",211,1,4.82339520000005
Pri_ET_Study1_3,M,0/0/1900,2022-07-07_10h53.12.221,89,test,NoPrioritise,1,cross,circle,triangle,square,"1.0,-0.2618543528600009,0.0306611530728087","0.5438403016684124,0.25535465854340766,0.6719910833849003","-0.11280811015512238,0.4617870748317987,0.35899735609320693","0.7481042841002781,0.28401253410301863,-1.0",348,273,220,100,"0.5438403016684124,0.25535465854340766,0.6719910833849003",273,"-0.15745197328482874,0.48927392525561153,0.09851328502402845",200,149,2.9009444000002986
Pri_ET_Study1_3,M,0/0/1900,2022-07-07_10h53.12.221,90,test,Prioritise1,2,triangle,circle,square,cross,"1.0,-0.1558548551326704,-0.7405909184559469","1.0,-0.007413941176475647,0.4855113905503705","0.03656203285471027,0.4839890544285097,-0.46499532916065","-0.11850987372908683,0.4637398184337027,0.34737226103556385",36,310,165,219,"0.03656203285471027,0.4839890544285097,-0.46499532916065",165,"-0.03545149328753128,0.4915787209123279,-0.3069086161051545",174,139,2.0214797000003273
Pri_ET_Study1_3,M,0/0/1900,2022-07-07_10h53.12.221,91,test,Prioritise1,3,triangle,circle,square,cross,"1.0,-0.02312336799965975,0.4668836380243213","1.0,0.022205290041545256,-1.0","1.0,-0.2583995670372059,-0.4160170008955538","-0.09355100115627091,0.45554214766479406,0.3928507547204487",312,60,18,223,"-0.09355100115627091,0.45554214766479406,0.3928507547204487",223,"0.9342399836420399,0.1906568045828605,-1.0",84,300,5.181472300000223
Pri_ET_Study1_3,M,0/0/1900,2022-07-07_10h53.12.221,92,test,Prioritise2,3,square,cross,circle,triangle,"0.49743207809976986,0.2728177294164349,0.672458831583457","1.0,-0.2787294505909397,-0.3224626175099854","1.0,-0.015534070910116049,-1.0","0.3373683384989987,0.425614728337375,-1.0",270,12,55,135,"0.3373683384989987,0.425614728337375,-1.0",135,"0.02803139784776887,0.4850479085911541,-0.44669070010662637",166,64,2.084817599999951
Pri_ET_Study1_3,M,0/0/1900,2022-07-07_10h53.12.221,93,test,Prioritise4,2,circle,triangle,cross,square,"1.0,-0.2583995670372059,-0.4160170008955538","1.0,-0.04666697700988032,0.4375655321668761","0.05398205218015839,0.48170764156945833,-0.5023703861935837","0.4511598862406947,0.28958122135142217,0.6706112376461497",18,315,163,267,"0.05398205218015839,0.48170764156945833,-0.5023703861935837",163,"1.0,-0.1308360377071882,0.3172469791017578",326,149,5.676873800000067
Pri_ET_Study1_3,M,0/0/1900,2022-07-07_10h53.12.221,94,test,Prioritise1,2,circle,square,cross,triangle,"-0.09478536258948067,0.49485771099788134,-0.15929400236046964","1.0,-0.16655302622891022,0.25673909055504174","0.27079222332264496,0.349525727356639,0.6402021298134932","0.8771865507724368,0.22170185938115816,-1.0",183,331,255,89,"0.27079222332264496,0.349525727356639,0.6402021298134932",255,"-0.007535811164553707,0.4303825516742039,0.4937312314227156",233,275,3.7561820999999327
Pri_ET_Study1_3,M,0/0/1900,2022-07-07_10h53.12.221,95,test,NoPrioritise,0,circle,square,triangle,cross,"1.0,0.06672643376273091,-1.0","0.32969209843730707,0.3308126345090221,0.6543985772501693","1.0,-0.2885749142137033,-0.24639910949319843","0.03656203285471027,0.4839890544285097,-0.46499532916065",66,259,7,165,"1.0,0.06672643376273091,-1.0",66,"1.0,0.06672643376273091,-1.0",66,280,2.256740499999978
Pri_ET_Study1_3,M,0/0/1900,2022-07-07_10h53.12.221,96,test,Prioritise1,1,circle,triangle,cross,square,"-0.02724900693809007,0.43596400275120595,0.47511170232003863","-0.020427730643879483,0.49026716567376205,-0.3409363637973366","0.6056610145008174,0.2310032177113197,0.6677762187869551","0.8189948021797893,0.2510686603392729,-1.0",231,172,277,94,"-0.020427730643879483,0.49026716567376205,-0.3409363637973366",172,"1.0,-0.29111130123666484,-0.15686324257888173",1,41,3.615683600000011
Pri_ET_Study1_3,M,0/0/1900,2022-07-07_10h53.12.221,97,test,Prioritise4,2,cross,triangle,square,circle,"0.7362113369355152,0.2892555466706437,-1.0","0.12802681261339854,0.47036395437091305,-0.6683938146358337","0.18599750731146814,0.3752337008299145,0.6114718629309206","1.0,-0.29113614091237483,-0.20140827106110581",101,155,249,4,"0.18599750731146814,0.3752337008299145,0.6114718629309206",249,"0.697563521415238,0.19227379976898162,0.6538323072937366",283,109,4.301120799999808
Pri_ET_Study1_3,M,0/0/1900,2022-07-07_10h53.12.221,98,test,NoPrioritise,2,square,cross,triangle,circle,"0.41670369996421397,0.40402696808005323,-1.0","-0.14981892062729885,0.491997057231198,0.04039774195876733","0.9026141269879491,0.09282770385166228,0.5869975937203944","1.0,-0.10580765013847959,-0.9756165541078137",128,196,297,43,"0.9026141269879491,0.09282770385166228,0.5869975937203944",297,"1.0,-0.2133971103908915,-0.5647212078646006",27,203,3.635688300000311
Pri_ET_Study1_3,M,0/0/1900,2022-07-07_10h53.12.221,99,test,Prioritise4,3,square,circle,cross,triangle,"1.0,0.007155954649565421,-1.0","1.0,-0.0932311933171065,0.374286934875081","0.08211922552252782,0.40518924666980105,0.5597871012004456","1.0,-0.28715474606071,-0.26149890951485844",58,321,241,8,"1.0,-0.28715474606071,-0.26149890951485844",8,"1.0,-0.29113614091237483,-0.20140827106110581",4,14,2.2272574999997232
Pri_ET_Study1_3,M,0/0/1900,2022-07-07_10h53.12.221,100,test,Prioritise1,2,square,circle,triangle,cross,"1.0,-0.28545618498147696,-0.27665271730440133","-0.0889322071979689,0.49470485377678974,-0.17530036558846096","0.9342399836420399,0.1906568045828605,-1.0","-0.09355100115627091,0.45554214766479406,0.3928507547204487",9,182,84,223,"0.9342399836420399,0.1906568045828605,-1.0",84,"0.07004997715874661,0.40859431628906884,0.5522929170622126",240,302,3.5039050000000316
Pri_ET_Study1_3,M,0/0/1900,2022-07-07_10h53.12.221,101,test,NoPrioritise,3,circle,cross,square,triangle,"0.2081252941518954,0.4553611512282272,-0.9356957589344492","1.0,-0.07783297952557244,0.3960373748090056","0.32969209843730707,0.3308126345090221,0.6543985772501693","0.9788490541088481,0.1646703741338249,-1.0",147,319,259,80,"0.9788490541088481,0.1646703741338249,-1.0",80,"-0.1481252589400609,0.4756545429797898,0.26153874370652797",212,104,2.0063273000000663
Pri_ET_Study1_3,M,0/0/1900,2022-07-07_10h53.12.221,102,test,Prioritise4,1,circle,triangle,square,cross,"-0.14500574250124976,0.47413711311303364,0.2742570559677715","0.10890282843090082,0.4735368131811257,-0.6233623294930688","0.4665589352747248,0.2840716923699367,0.6714844115718321","1.0,-0.030699357614306977,-1.0",213,157,268,53,"0.10890282843090082,0.4735368131811257,-0.6233623294930688",157,"0.6210691465439071,0.22472865664823272,0.6660842894513506",278,138,1.7004991000003429
Pri_ET_Study1_3,M,0/0/1900,2022-07-07_10h53.12.221,103,test,Prioritise4,0,cross,triangle,square,circle,"1.0,-0.20571451687417974,0.18014638001872707","0.0809641014742315,0.4778728517952051,-0.560834903418019","0.509921421288337,0.37533864292099284,-1.0","-0.1334211421392112,0.46921826779504494,0.31151742599586085",337,160,120,216,"1.0,-0.20571451687417974,0.18014638001872707",337,"1.0,-0.07783297952557244,0.3960373748090056",319,225,2.8549081999999544
Pri_ET_Study1_3,M,0/0/1900,2022-07-07_10h53.12.221,104,test,NoPrioritise,1,circle,triangle,square,cross,"-0.15218698220497417,0.491399065672369,0.0550849709310266","0.3485477954945324,0.4227267056127266,-1.0","1.0,-0.2905679542092485,-0.21635494529981825","1.0,-0.015267259554568757,0.4762913260168815",197,134,5,311,"0.3485477954945324,0.4227267056127266,-1.0",134,"0.29323185337982705,0.4365272844863326,-1.0",139,145,2.888336900000013
Pri_ET_Study1_3,M,0/0/1900,2022-07-07_10h53.12.221,105,test,NoPrioritise,1,circle,cross,triangle,square,"0.5283655398475315,0.26125276704655587,0.6724040666408482","1.0,-0.27293323902243416,-0.35332683897484074","1.0,0.029697581538389972,-1.0","0.1774490411200258,0.4614263698132157,-0.8044096137074778",272,14,61,150,"1.0,-0.27293323902243416,-0.35332683897484074",14,"0.9709143462906737,0.05487098646765176,0.5521665648538059",302,143,2.685607300000356
Pri_ET_Study1_3,M,0/0/1900,2022-07-07_10h53.12.221,106,test,Prioritise3,0,triangle,square,cross,circle,"0.7481042841002781,0.28401253410301863,-1.0","0.8885895249151152,0.10029123080933622,0.593298310174416","1.0,-0.28545618498147696,-0.27665271730440133","0.09441071644993415,0.40170970408167506,0.5670564126145141",100,296,9,242,"0.7481042841002781,0.28401253410301863,-1.0",100,"0.8072476110492377,0.25673500061136667,-1.0",95,127,3.7296062999998867
Pri_ET_Study1_3,M,0/0/1900,2022-07-07_10h53.12.221,107,test,NoPrioritise,3,cross,circle,triangle,square,"0.5453823652594301,0.36344457638027117,-1.0","1.0,-0.2759589912597996,-0.3378595329546661","-0.1336957186097738,0.49417000388378884,-0.03453353894846056","-0.017538974095646753,0.43320838581829424,0.48452289736445553",117,13,191,232,"-0.017538974095646753,0.43320838581829424,0.48452289736445553",232,"0.9709143462906737,0.05487098646765176,0.5521665648538059",302,357,2.795006299999841
Pri_ET_Study1_3,M,0/0/1900,2022-07-07_10h53.12.221,108,test,Prioritise3,0,triangle,circle,square,cross,"1.0,-0.2133971103908915,-0.5647212078646006","1.0,-0.18672585607811187,0.21894575397790916","0.6364477477613335,0.21838082541010184,0.6641383826852352","-0.04985376064386149,0.4926777683571715,-0.2733707743273047",27,334,279,176,"1.0,-0.2133971103908915,-0.5647212078646006",27,"1.0,-0.07604755533137741,-1.0",47,26,2.018005699999776
Pri_ET_Study1_3,M,0/0/1900,2022-07-07_10h53.12.221,109,test,Prioritise2,2,circle,cross,triangle,square,"0.7362113369355152,0.2892555466706437,-1.0","1.0,-0.007413941176475647,0.4855113905503705","1.0,-0.2905255226561695,-0.14211314919909668","1.0,-0.03828278687151976,-1.0",101,310,0,52,"1.0,-0.2905255226561695,-0.14211314919909668",0,"1.0,-0.26238457869240295,-0.4002073564444957",17,281,3.474687299999914
Pri_ET_Study1_3,M,0/0/1900,2022-07-07_10h53.12.221,110,test,Prioritise2,2,triangle,cross,square,circle,"0.19781922438295352,0.4574422518266765,-0.8818361039644314","0.4665589352747248,0.2840716923699367,0.6714844115718321","1.0,-0.266139671692747,-0.3844942650329082","0.7362113369355152,0.2892555466706437,-1.0",148,268,16,101,"1.0,-0.266139671692747,-0.3844942650329082",16,"1.0,-0.29111130123666484,-0.15686324257888173",1,305,2.094102000000021
Pri_ET_Study1_3,M,0/0/1900,2022-07-07_10h53.12.221,111,test,Prioritise3,0,square,cross,triangle,circle,"-0.1415152911985038,0.4725588943334964,0.2868282896334675","0.3446475566939091,0.32593623267112437,0.6573177271493604","1.0,0.031678509722878445,0.528693730626498","0.06286533759988822,0.4804846395944975,-0.5215000541421746",214,260,305,162,"-0.1415152911985038,0.4725588943334964,0.2868282896334675",214,"1.0,-0.2905255226561695,-0.14211314919909668",0,128,2.5953159999999116
Pri_ET_Study1_3,M,0/0/1900,2022-07-07_10h53.12.221,112,test,Prioritise1,0,cross,triangle,square,circle,"1.0,-0.28715474606071,-0.26149890951485844","0.5902286499321849,0.2372037618456999,0.6692134526599127","0.15741439024530024,0.4651753747362595,-0.7441898531558468","1.0,0.1377261376429495,-1.0",8,276,152,76,"1.0,-0.28715474606071,-0.26149890951485844",8,"1.0,-0.291416597096681,-0.18651092035548889",3,19,3.7528714999998556
Pri_ET_Study1_3,M,0/0/1900,2022-07-07_10h53.12.221,113,test,Prioritise1,2,cross,square,triangle,circle,"1.0,-0.19319706407583936,0.20612000948251996","0.13253781604398185,0.3908200528647623,0.5874938236427092","1.0,0.09568719202827336,-1.0","-0.1160886962144162,0.49493957268076216,-0.09618366371381681",335,245,70,187,"1.0,0.09568719202827336,-1.0",70,"0.07186027412725471,0.47920645949573504,-0.5409731165987569",161,274,1.8675733999998556
Pri_ET_Study1_3,M,0/0/1900,2022-07-07_10h53.12.221,114,test,Prioritise2,0,square,triangle,cross,circle,"1.0,-0.223312447401106,0.14042906010430367","0.9439739668489959,0.07017173146500566,0.5667550331301558","1.0,-0.10580765013847959,-0.9756165541078137","-0.10587186235375057,0.4950046804635242,-0.12755688133261178",340,300,43,185,"1.0,-0.223312447401106,0.14042906010430367",340,"0.7599790593392,0.278698430329378,-1.0",99,13,2.7408213999997315
Pri_ET_Study1_3,M,0/0/1900,2022-07-07_10h53.12.221,115,test,Prioritise3,2,square,triangle,cross,circle,"1.0,0.022205290041545256,-1.0","-0.15745197328482874,0.48927392525561153,0.09851328502402845","1.0,-0.2541916545294901,-0.43193236346031305","0.28536486694739915,0.3449661378960809,0.6441272460635925",60,200,19,256,"1.0,-0.2541916545294901,-0.43193236346031305",19,"1.0,-0.2812391217555803,-0.30713162009795525",11,28,2.608473700000104
Pri_ET_Study1_3,M,0/0/1900,2022-07-07_10h53.12.221,116,test,Prioritise3,0,square,circle,cross,triangle,"0.013319861281873457,0.4245182348375207,0.5115287599103473","0.5335383805596645,0.36747902832868284,-1.0","1.0,0.03716450464441401,-1.0","1.0,-0.2914084206358549,-0.1716625835351976",235,118,62,2,"0.013319861281873457,0.4245182348375207,0.5115287599103473",235,"0.1997782184249719,0.37114427631595914,0.6168699381761522",250,174,2.9689170999999988
Pri_ET_Study1_3,M,0/0/1900,2022-07-07_10h53.12.221,117,test,Prioritise1,0,triangle,cross,square,circle,"-0.06359610428535867,0.4935649245563736,-0.24027710533734647","1.0,0.022205290041545256,-1.0","0.35978173682339754,0.41977397962065344,-1.0","1.0,-0.27259515439613147,-0.011730747350127468",178,60,133,351,"-0.06359610428535867,0.4935649245563736,-0.24027710533734647",178,"-0.11109230792064029,0.494998675286374,-0.11182488810932678",186,106,3.383602900000369
Pri_ET_Study1_3,M,0/0/1900,2022-07-07_10h53.12.221,118,test,Prioritise3,3,square,circle,cross,triangle,"0.4397882380638529,0.39726260220805054,-1.0","0.17237529551869346,0.3792456671279014,0.6058334931269098","1.0,-0.265680167273015,0.01659727634298691","1.0,0.031678509722878445,0.528693730626498",126,248,349,305,"1.0,0.031678509722878445,0.528693730626498",305,"0.03525654226328623,0.4183671124064994,0.5284836519992187",237,142,2.9386219999996683
Pri_ET_Study1_3,M,0/0/1900,2022-07-07_10h53.12.221,119,test,Prioritise3,2,square,circle,triangle,cross,"1.0,-0.05449202187079283,0.427438243059558","-0.12538192785381974,0.49466166942996614,-0.0651744334368548","0.911575527904773,0.20327130372654878,-1.0","0.2277843781848521,0.3627318956570289,0.6269388339435948",316,189,86,252,"0.911575527904773,0.20327130372654878,-1.0",86,"0.7362113369355152,0.2892555466706437,-1.0",101,143,2.381630199999563
Pri_ET_Study1_3,M,0/0/1900,2022-07-07_10h53.12.221,120,test,Prioritise4,3,triangle,circle,square,cross,"1.0,-0.00039510366743955583,-1.0","0.2081252941518954,0.4553611512282272,-0.9356957589344492","1.0,0.023895135487088437,0.520455959599228","0.11962807502985351,0.3945255124543332,0.5809118383777745",57,147,306,244,"0.11962807502985351,0.3945255124543332,0.5809118383777745",244,"0.1456375685133382,0.387038501124352,0.5938426811268567",246,163,2.4716567000000396
Pri_ET_Study1_3,M,0/0/1900,2022-07-07_10h53.12.221,121,test,Prioritise3,0,square,circle,triangle,cross,"0.14752787305018233,0.4669625621869047,-0.7174796825499677","-0.07115460775268467,0.4487065849390661,0.42510855757080535","1.0,0.07402842417913646,-1.0","1.0,-0.10844910144201803,0.3519141850209708",153,226,67,323,"0.14752787305018233,0.4669625621869047,-0.7174796825499677",153,"1.0,-0.2853220527670477,-0.0836186653125478",356,116,1.8458920999996735
Pri_ET_Study1_3,M,0/0/1900,2022-07-07_10h53.12.221,122,test,NoPrioritise,0,square,triangle,circle,cross,"0.09017416231209929,0.4764835565228893,-0.581140049938324","1.0,-0.030978196634575572,0.4572913763932509","0.17237529551869346,0.3792456671279014,0.6058334931269098","-0.15857178695416452,0.48845422840718666,0.1127707600476957",159,313,248,201,"0.09017416231209929,0.4764835565228893,-0.581140049938324",159,"0.09948789533259128,0.47503830359136323,-0.601955130836429",158,43,2.689278899999863
Pri_ET_Study1_3,M,0/0/1900,2022-07-07_10h53.12.221,123,test,Prioritise2,2,cross,square,triangle,circle,"1.0,-0.12042756170577695,-0.8836340589512358","0.11962807502985351,0.3945255124543332,0.5809118383777745","0.3373683384989987,0.425614728337375,-1.0","-0.13746749759655974,0.49384364036211803,-0.01935357496354817",41,244,135,192,"0.3373683384989987,0.425614728337375,-1.0",135,"1.0,-0.007413941176475647,0.4855113905503705",310,112,2.507249199999933
Pri_ET_Study1_3,M,0/0/1900,2022-07-07_10h53.12.221,124,test,NoPrioritise,0,triangle,square,circle,cross,"-0.15325530146069954,0.47850880592239364,0.23567289266690317","0.5283655398475315,0.26125276704655587,0.6724040666408482","0.3937919637711427,0.41052389502637143,-1.0","1.0,-0.13815640460244194,0.305409278040333",210,272,130,327,"-0.15325530146069954,0.47850880592239364,0.23567289266690317",210,"-0.1336957186097738,0.49417000388378884,-0.03453353894846056",191,94,2.2554015999999137
Pri_ET_Study1_3,M,0/0/1900,2022-07-07_10h53.12.221,125,test,NoPrioritise,3,cross,square,circle,triangle,"1.0,0.007155954649565421,-1.0","0.011345098196205106,0.4870029319956142,-0.41073039696963887","1.0,-0.10844910144201803,0.3519141850209708","-0.12881863109484093,0.46745492896353924,0.32362925960524147",58,168,323,217,"-0.12881863109484093,0.46745492896353924,0.32362925960524147",217,"-0.10674528321075638,0.4597702151299572,0.3704541436797111",221,333,1.839353399999709
Pri_ET_Study1_3,M,0/0/1900,2022-07-07_10h53.12.221,126,test,Prioritise2,1,triangle,cross,square,circle,"-0.11280811015512238,0.4617870748317987,0.35899735609320693","1.0,0.14454808295369936,-1.0","0.9026141269879491,0.09282770385166228,0.5869975937203944","0.15741439024530024,0.4651753747362595,-0.7441898531558468",220,77,297,152,"1.0,0.14454808295369936,-1.0",77,"0.8458569493622168,0.12238552790175761,0.6108291411981881",293,358,1.6421308000003592
Pri_ET_Study1_3,M,0/0/1900,2022-07-07_10h53.12.221,127,test,Prioritise2,1,square,circle,triangle,cross,"0.6056610145008174,0.2310032177113197,0.6677762187869551","0.03525654226328623,0.4183671124064994,0.5284836519992187","1.0,-0.07604755533137741,-1.0","0.4282253351913974,0.40067838587068505,-1.0",277,237,47,127,"0.03525654226328623,0.4183671124064994,0.5284836519992187",237,"0.07004997715874661,0.40859431628906884,0.5522929170622126",240,146,3.028547200000048
Pri_ET_Study1_3,M,0/0/1900,2022-07-07_10h53.12.221,128,test,Prioritise2,3,square,cross,circle,triangle,"1.0,-0.28849207683894174,-0.11276294357485506","1.0,-0.030978196634575572,0.4572913763932509","0.12802681261339854,0.47036395437091305,-0.6683938146358337","0.03525654226328623,0.4183671124064994,0.5284836519992187",358,313,155,237,"0.03525654226328623,0.4183671124064994,0.5284836519992187",237,"-0.017538974095646753,0.43320838581829424,0.48452289736445553",232,44,1.8325245999999424
Pri_ET_Study1_3,M,0/0/1900,2022-07-07_10h53.12.221,129,test,Prioritise3,0,triangle,square,cross,circle,"1.0,-0.28545618498147696,-0.27665271730440133","0.6517915958318632,0.21196052870658733,0.661939301509457","0.29323185337982705,0.4365272844863326,-1.0","0.9898363577373541,0.15802139914365565,-1.0",9,280,139,79,"1.0,-0.28545618498147696,-0.27665271730440133",9,"0.18759316868675757,0.45946387343509576,-0.8398972692549822",149,40,2.214868999999908
Pri_ET_Study1_3,M,0/0/1900,2022-07-07_10h53.12.221,130,test,Prioritise4,3,triangle,circle,square,cross,"0.10691635848548953,0.39815526341168916,0.5740986907036785","-0.12966480223349675,0.49444262706220066,-0.04980752507879116","0.9439739668489959,0.07017173146500566,0.5667550331301558","1.0,-0.22467733398512213,-0.5303566464837048",243,190,300,25,"1.0,-0.22467733398512213,-0.5303566464837048",25,"1.0,-0.2812391217555803,-0.30713162009795525",11,268,5.089893899999879
Pri_ET_Study1_3,M,0/0/1900,2022-07-07_10h53.12.221,131,test,Prioritise1,0,triangle,cross,square,circle,"0.03656203285471027,0.4839890544285097,-0.46499532916065","0.2419946445565604,0.35840841428502257,0.6316066564714324","1.0,-0.176090722701999,-0.6762956704638035","0.5929450132200651,0.3466038519932022,-1.0",165,253,33,113,"0.03656203285471027,0.4839890544285097,-0.46499532916065",165,"-0.09478536258948067,0.49485771099788134,-0.15929400236046964",183,1,5.2834797000000435
Pri_ET_Study1_3,M,0/0/1900,2022-07-07_10h53.12.221,132,test,Prioritise1,1,cross,triangle,square,circle,"0.28536486694739915,0.3449661378960809,0.6441272460635925","0.8189948021797893,0.2510686603392729,-1.0","-0.028015013033697245,0.49094955428922593,-0.32385780920023366","1.0,-0.2784883645829067,-0.04031082501765193",256,94,173,353,"0.8189948021797893,0.2510686603392729,-1.0",94,"-0.007535811164553707,0.4303825516742039,0.4937312314227156",233,226,2.5198592000001554
Pri_ET_Study1_3,M,0/0/1900,2022-07-07_10h53.12.221,133,test,NoPrioritise,0,circle,triangle,square,cross,"0.6517915958318632,0.21196052870658733,0.661939301509457","1.0,0.04460337025072447,-1.0","1.0,-0.2117453636986133,0.16700499532847024","0.04661056885000425,0.4151827959781793,0.5366388806382338",280,63,338,238,"0.6517915958318632,0.21196052870658733,0.661939301509457",280,"0.7874973343482177,0.15108074255601633,0.6309286527694675",289,15,2.1945928000000094
Pri_ET_Study1_3,M,0/0/1900,2022-07-07_10h53.12.221,134,test,Prioritise2,1,triangle,cross,circle,square,"1.0,-0.21911833444213913,-0.5474132739956148","0.15891936573799903,0.3831804895186659,0.5999565135488085","-0.004817967995419115,0.4887422579776717,-0.37551595656205394","1.0,-0.02312336799965975,0.4668836380243213",26,247,170,312,"0.15891936573799903,0.3831804895186659,0.5999565135488085",247,"0.03525654226328623,0.4183671124064994,0.5284836519992187",237,174,3.5882802000000993
Pri_ET_Study1_3,M,0/0/1900,2022-07-07_10h53.12.221,135,test,Prioritise1,0,square,triangle,cross,circle,"-0.017538974095646753,0.43320838581829424,0.48452289736445553","-0.020427730643879483,0.49026716567376205,-0.3409363637973366","1.0,-0.04666697700988032,0.4375655321668761","0.854028730639278,0.2336538600688729,-1.0",232,172,315,91,"-0.017538974095646753,0.43320838581829424,0.48452289736445553",232,"-0.017538974095646753,0.43320838581829424,0.48452289736445553",232,277,2.071226399999887
Pri_ET_Study1_3,M,0/0/1900,2022-07-07_10h53.12.221,136,test,Prioritise3,3,triangle,square,circle,cross,"0.5128942075651803,0.26707393527284795,0.6725600501236935","-0.13746749759655974,0.49384364036211803,-0.01935357496354817","0.3485477954945324,0.4227267056127266,-1.0","1.0,0.06672643376273091,-1.0",271,192,134,66,"1.0,0.06672643376273091,-1.0",66,"-0.07115460775268467,0.4487065849390661,0.42510855757080535",226,165,1.738100100000338
Pri_ET_Study1_3,M,0/0/1900,2022-07-07_10h53.12.221,137,test,Prioritise2,2,cross,triangle,circle,square,"1.0,-0.18262560807777894,-0.6564771422547051","-0.1442047673080774,0.4930289775224417,0.010718955352132964","0.5453823652594301,0.36344457638027117,-1.0","0.024156992038590452,0.42147876676365525,0.5201127943356356",32,194,117,236,"0.5453823652594301,0.36344457638027117,-1.0",117,"0.03525654226328623,0.4183671124064994,0.5284836519992187",237,30,1.4539820999998483
Pri_ET_Study1_3,M,0/0/1900,2022-07-07_10h53.12.221,138,test,Prioritise4,0,triangle,cross,circle,square,"0.854028730639278,0.2336538600688729,-1.0","-0.13746749759655974,0.49384364036211803,-0.01935357496354817","0.024156992038590452,0.42147876676365525,0.5201127943356356","1.0,-0.1159761024614836,0.3405028198215041",91,192,236,324,"0.854028730639278,0.2336538600688729,-1.0",91,"-0.11109230792064029,0.494998675286374,-0.11182488810932678",186,134,2.002460600000177
Pri_ET_Study1_3,M,0/0/1900,2022-07-07_10h53.12.221,139,test,Prioritise4,0,square,cross,triangle,circle,"0.6407010103455535,0.32862970770224886,-1.0","1.0,-0.023115205136178596,-1.0","1.0,-0.07007995956776203,0.4066709204115653","0.1997782184249719,0.37114427631595914,0.6168699381761522",109,54,318,250,"0.6407010103455535,0.32862970770224886,-1.0",109,"0.14752787305018233,0.4669625621869047,-0.7174796825499677",153,7,2.545361999999841
Pri_ET_Study1_3,M,0/0/1900,2022-07-07_10h53.12.221,140,test,Prioritise3,2,square,circle,triangle,cross,"1.0,-0.2905679542092485,-0.21635494529981825","1.0,-0.10844910144201803,0.3519141850209708","-0.07115460775268467,0.4487065849390661,0.42510855757080535","0.6823545184579658,0.19890605819631269,0.6567852503614975",5,323,226,282,"-0.07115460775268467,0.4487065849390661,0.42510855757080535",226,"-0.03665861455697994,0.4386499069954206,0.4655003413302212",230,15,4.069003600000087
Pri_ET_Study1_3,M,0/0/1900,2022-07-07_10h53.12.221,141,test,Prioritise4,3,cross,circle,triangle,square,"-0.12384754992127334,0.4656289401720195,0.3355818842165046","1.0,0.09568719202827336,-1.0","0.3148218664135791,0.3356097028178475,0.6512264970146455","1.0,-0.19952917352700617,0.19318579588388318",218,70,258,336,"1.0,-0.19952917352700617,0.19318579588388318",336,"1.0,-0.030978196634575572,0.4572913763932509",313,142,4.946316999999908
Pri_ET_Study1_3,M,0/0/1900,2022-07-07_10h53.12.221,142,test,Prioritise4,1,circle,square,cross,triangle,"0.5691306813430501,0.3551652128948415,-1.0","0.7127176267031001,0.18557291042394586,0.6506302425082333","-0.12538192785381974,0.49466166942996614,-0.0651744334368548","0.11962807502985351,0.3945255124543332,0.5809118383777745",115,284,189,244,"0.7127176267031001,0.18557291042394586,0.6506302425082333",284,"0.07186027412725471,0.47920645949573504,-0.5409731165987569",161,225,2.652456300000267
Pri_ET_Study1_3,M,0/0/1900,2022-07-07_10h53.12.221,143,test,NoPrioritise,1,cross,circle,triangle,square,"0.9973143857544444,0.03943765994348003,0.5367265506444097","0.4051864188365102,0.30563705046778256,0.6664498358678796","-0.028015013033697245,0.49094955428922593,-0.32385780920023366","0.7243026375027783,0.2944273290124073,-1.0",304,264,173,102,"0.4051864188365102,0.30563705046778256,0.6664498358678796",264,"0.6823545184579658,0.19890605819631269,0.6567852503614975",282,27,2.858202800000072
Pri_ET_Study1_3,M,0/0/1900,2022-07-07_10h53.12.221,144,test,Prioritise2,0,square,triangle,cross,circle,"-0.12881863109484093,0.46745492896353924,0.32362925960524147","1.0,-0.10086551076024819,0.3631766774585774","1.0,0.01469043779870538,-1.0","0.5438403016684124,0.25535465854340766,0.6719910833849003",217,322,59,273,"-0.12881863109484093,0.46745492896353924,0.32362925960524147",217,"-0.15745197328482874,0.48927392525561153,0.09851328502402845",200,49,3.035468099999889
Pri_ET_Study1_3,M,0/0/1900,2022-07-07_10h53.12.221,145,test,Prioritise2,0,circle,triangle,square,cross,"0.1184165720364383,0.4719787961363635,-0.6454646836219573","1.0,-0.27293323902243416,-0.35332683897484074","-0.0864279937772866,0.4533299305616785,0.40378459741649797","1.0,-0.0855518419522695,0.38524161028667625",156,14,224,320,"0.1184165720364383,0.4719787961363635,-0.6454646836219573",156,"0.18759316868675757,0.45946387343509576,-0.8398972692549822",149,21,9.804620000000341
Pri_ET_Study1_3,M,0/0/1900,2022-07-07_10h53.12.221,146,test,Prioritise2,0,circle,cross,triangle,square,"1.0,0.031678509722878445,0.528693730626498","0.07186027412725471,0.47920645949573504,-0.5409731165987569","1.0,-0.007959551777363516,-1.0","1.0,-0.2759589912597996,-0.3378595329546661",305,161,56,13,"1.0,0.031678509722878445,0.528693730626498",305,"1.0,0.01469043779870538,-1.0",59,68,2.4906574999999975
Pri_ET_Study1_3,M,0/0/1900,2022-07-07_10h53.12.221,147,test,Prioritise2,1,cross,triangle,circle,square,"0.6168077568629242,0.33775906377670717,-1.0","0.2563330525591274,0.3540064263668754,0.6360281906414551","1.0,-0.07783297952557244,0.3960373748090056","-0.10043403746491275,0.49495767021285575,-0.14337977127983403",111,254,319,184,"0.2563330525591274,0.3540064263668754,0.6360281906414551",254,"0.4204673865307198,0.3003640950728248,0.6680936776579738",265,181,2.074720299999626
Pri_ET_Study1_3,M,0/0/1900,2022-07-07_10h53.12.221,148,test,Prioritise2,1,circle,cross,triangle,square,"0.1673887875274096,0.46333008938060627,-0.7729226224565875","0.3446475566939091,0.32593623267112437,0.6573177271493604","0.9709143462906737,0.05487098646765176,0.5521665648538059","0.7243026375027783,0.2944273290124073,-1.0",151,260,302,102,"0.3446475566939091,0.32593623267112437,0.6573177271493604",260,"0.7278119810668549,0.17880451220180715,0.6471802765379799",285,77,3.920350299999882
Pri_ET_Study1_3,M,0/0/1900,2022-07-07_10h53.12.221,149,test,Prioritise3,3,square,triangle,cross,circle,"-0.15325530146069954,0.47850880592239364,0.23567289266690317","0.6646065852612066,0.3192149609683923,-1.0","1.0,-0.12042756170577695,-0.8836340589512358","0.697563521415238,0.19227379976898162,0.6538323072937366",210,107,41,283,"0.697563521415238,0.19227379976898162,0.6538323072937366",283,"0.557247182986663,0.35934004439537626,-1.0",116,342,2.799026700000013
Pri_ET_Study1_3,M,0/0/1900,2022-07-07_10h53.12.221,150,test,NoPrioritise,3,circle,cross,triangle,square,"1.0,-0.11314379054822865,-0.9277147292103822","0.9709143462906737,0.05487098646765176,0.5521665648538059","0.003196340864616065,0.48789947231709707,-0.3930376390559923","0.17237529551869346,0.3792456671279014,0.6058334931269098",42,302,169,248,"0.17237529551869346,0.3792456671279014,0.6058334931269098",248,"0.15891936573799903,0.3831804895186659,0.5999565135488085",247,102,3.4674590999998145
Pri_ET_Study1_3,M,0/0/1900,2022-07-07_10h53.12.221,151,test,Prioritise3,1,square,circle,cross,triangle,"1.0,-0.2812391217555803,-0.30713162009795525","-0.05454842094763246,0.44381461100324726,0.4456881091586087","-0.06359610428535867,0.4935649245563736,-0.24027710533734647","0.9566713411825642,0.17778746275501622,-1.0",11,228,178,82,"-0.05454842094763246,0.44381461100324726,0.4456881091586087",228,"0.4665589352747248,0.2840716923699367,0.6714844115718321",268,337,2.820886099999825
Pri_ET_Study1_3,M,0/0/1900,2022-07-07_10h53.12.221,152,test,Prioritise3,1,square,circle,cross,triangle,"0.8885895249151152,0.10029123080933622,0.593298310174416","0.03656203285471027,0.4839890544285097,-0.46499532916065","0.7836643519746782,0.2678576623980824,-1.0","1.0,-0.2810383691272422,-0.05469022987079308",296,165,97,354,"0.03656203285471027,0.4839890544285097,-0.46499532916065",165,"-0.07115460775268467,0.4487065849390661,0.42510855757080535",226,74,3.850112199999785
Pri_ET_Study1_3,M,0/0/1900,2022-07-07_10h53.12.221,153,test,Prioritise4,3,circle,triangle,square,cross,"0.9973143857544444,0.03943765994348003,0.5367265506444097","1.0,-0.1558548551326704,-0.7405909184559469","-0.1552691192795369,0.47984650043174004,0.22253130766167373","0.28235212283095645,0.4390974279014652,-1.0",304,36,209,140,"0.28235212283095645,0.4390974279014652,-1.0",140,"0.3373683384989987,0.425614728337375,-1.0",135,336,2.3528596000001016
Pri_ET_Study1_3,M,0/0/1900,2022-07-07_10h53.12.221,154,test,NoPrioritise,2,circle,triangle,cross,square,"-0.14715582087117385,0.4925402828135286,0.025608434090147236","0.6526534052453359,0.32395804637990677,-1.0","1.0,-0.007959551777363516,-1.0","0.32969209843730707,0.3308126345090221,0.6543985772501693",195,108,56,259,"1.0,-0.007959551777363516,-1.0",56,"0.07004997715874661,0.40859431628906884,0.5522929170622126",240,197,2.4721936000000824
Pri_ET_Study1_3,M,0/0/1900,2022-07-07_10h53.12.221,155,test,Prioritise4,2,circle,cross,square,triangle,"1.0,-0.0932311933171065,0.374286934875081","1.0,0.12391818455152381,-1.0","-0.12538192785381974,0.49466166942996614,-0.0651744334368548","1.0,-0.2583995670372059,-0.4160170008955538",321,74,189,18,"-0.12538192785381974,0.49466166942996614,-0.0651744334368548",189,"-0.14715582087117385,0.4925402828135286,0.025608434090147236",195,279,2.16861740000013
Pri_ET_Study1_3,M,0/0/1900,2022-07-07_10h53.12.221,156,test,Prioritise3,3,cross,circle,square,triangle,"0.5691306813430501,0.3551652128948415,-1.0","1.0,-0.11314379054822865,-0.9277147292103822","-0.1582066093163167,0.48234509352938293,0.19584550247902222","0.9575099088241161,0.0625393185362546,0.5595685159060846",115,42,207,301,"0.9575099088241161,0.0625393185362546,0.5595685159060846",301,"0.43579397082986615,0.29501209376045523,0.6694809165992386",266,120,1.8466675999998188
Pri_ET_Study1_3,M,0/0/1900,2022-07-07_10h53.12.221,157,test,NoPrioritise,0,square,triangle,circle,cross,"0.4282253351913974,0.40067838587068505,-1.0","-0.15601024525342333,0.4900377710624384,0.08414494382818494","0.697563521415238,0.19227379976898162,0.6538323072937366","1.0,-0.12765325079304635,-0.8480385611780058",127,199,283,40,"0.4282253351913974,0.40067838587068505,-1.0",127,"0.10890282843090082,0.4735368131811257,-0.6233623294930688",157,5,2.8896294999999554
Pri_ET_Study1_3,M,0/0/1900,2022-07-07_10h53.12.221,158,test,Prioritise1,1,circle,square,triangle,cross,"0.6056610145008174,0.2310032177113197,0.6677762187869551","0.6287517000804042,0.333230015934751,-1.0","1.0,-0.17339639938985352,0.2442586263282529","-0.15971287347422924,0.4846106035432911,0.16864202556096686",277,110,332,205,"0.6287517000804042,0.333230015934751,-1.0",110,"0.557247182986663,0.35934004439537626,-1.0",116,231,5.801181400000132
Pri_ET_Study1_3,M,0/0/1900,2022-07-07_10h53.12.221,159,test,Prioritise2,2,square,circle,triangle,cross,"0.8423878648894922,0.2395276862660105,-1.0","-0.01269399205840449,0.48953144240138324,-0.3581525544909092","1.0,-0.2812391217555803,-0.30713162009795525","0.9439739668489959,0.07017173146500566,0.5667550331301558",92,171,11,300,"1.0,-0.2812391217555803,-0.30713162009795525",11,"0.7127176267031001,0.18557291042394586,0.6506302425082333",284,20,1.6440941000000748
Pri_ET_Study1_3,M,0/0/1900,2022-07-07_10h53.12.221,160,test,NoPrioritise,0,square,cross,triangle,circle,"1.0,0.0885108071490186,-1.0","0.04521328814621106,0.4828757040428189,-0.4835461552047625","0.697563521415238,0.19227379976898162,0.6538323072937366","1.0,-0.28545618498147696,-0.27665271730440133",69,164,283,9,"1.0,0.0885108071490186,-1.0",69,"1.0,-0.09100024043058197,-1.0",45,85,3.0373795000000428
Pri_ET_Study1_3,M,0/0/1900,2022-07-07_10h53.12.221,161,test,Prioritise3,2,triangle,cross,circle,square,"1.0,-0.03882752461224859,0.44751763152896373","1.0,0.10281785561567158,-1.0","-0.11109230792064029,0.494998675286374,-0.11182488810932678","0.22896995211020998,0.45101907426419996,-1.0",314,71,186,145,"-0.11109230792064029,0.494998675286374,-0.11182488810932678",186,"-0.10587186235375057,0.4950046804635242,-0.12755688133261178",185,102,3.921289699999761
Pri_ET_Study1_3,M,0/0/1900,2022-07-07_10h53.12.221,162,test,Prioritise2,1,cross,circle,triangle,square,"1.0,0.14454808295369936,-1.0","-0.09478536258948067,0.49485771099788134,-0.15929400236046964","0.32969209843730707,0.3308126345090221,0.6543985772501693","0.9575099088241161,0.0625393185362546,0.5595685159060846",77,183,259,301,"-0.09478536258948067,0.49485771099788134,-0.15929400236046964",183,"-0.07663707943429687,0.49424057193593485,-0.2075945922293636",180,46,3.4842364000001
Pri_ET_Study1_3,M,0/0/1900,2022-07-07_10h53.12.221,163,test,Prioritise2,3,triangle,cross,square,circle,"1.0,-0.23416809090988489,0.11348302116348141","-0.12881863109484093,0.46745492896353924,0.32362925960524147","0.9001622899209403,0.20948101299508481,-1.0","0.2715377535601935,0.44160513045338035,-1.0",342,217,87,141,"0.2715377535601935,0.44160513045338035,-1.0",141,"0.1774490411200258,0.4614263698132157,-0.8044096137074778",150,211,2.1201452000000245
Pri_ET_Study1_3,M,0/0/1900,2022-07-07_10h53.12.221,164,test,Prioritise1,0,cross,triangle,circle,square,"0.8744524420551003,0.1077067653533772,0.5993718879433354","0.0809641014742315,0.4778728517952051,-0.560834903418019","1.0,-0.28545618498147696,-0.27665271730440133","-0.1334211421392112,0.46921826779504494,0.31151742599586085",295,160,9,216,"0.8744524420551003,0.1077067653533772,0.5993718879433354",295,"0.9165223056430671,0.08531838961047389,0.5804719469242157",298,311,1.9386429000001044
Pri_ET_Study1_3,M,0/0/1900,2022-07-07_10h53.12.221,165,test,Prioritise3,3,square,circle,cross,triangle,"-0.15691856372514257,0.4811251279442219,0.20925454252068332","1.0,0.008268781307839035,0.5033766660072689","0.4665589352747248,0.2840716923699367,0.6714844115718321","0.4981526525436166,0.3791643150394166,-1.0",208,308,268,121,"0.4981526525436166,0.3791643150394166,-1.0",121,"-0.14097292288545527,0.4934633616179327,-0.004268922352566595",193,131,1.934314699999959
Pri_ET_Study1_3,M,0/0/1900,2022-07-07_10h53.12.221,166,test,Prioritise3,1,square,circle,triangle,cross,"1.0,-0.27567226916307197,-0.025990342729996674","-0.10032491436032498,0.45768874039972984,0.3817396096664756","0.8314067698500829,0.129644828397681,0.6162087510840306","1.0,-0.11314379054822865,-0.9277147292103822",352,222,292,42,"-0.10032491436032498,0.45768874039972984,0.3817396096664756",222,"0.0809641014742315,0.4778728517952051,-0.560834903418019",160,319,1.68381780000027
Pri_ET_Study1_3,M,0/0/1900,2022-07-07_10h53.12.221,167,test,Prioritise3,1,circle,square,triangle,cross,"0.8885895249151152,0.10029123080933622,0.593298310174416","1.0,0.04460337025072447,-1.0","-0.1415152911985038,0.4725588943334964,0.2868282896334675","1.0,-0.289651960671372,-0.12741280502186536",296,63,214,359,"1.0,0.04460337025072447,-1.0",63,"0.984183681480933,0.0471694796759472,0.544551712303033",303,162,1.800514700000349
Pri_ET_Study1_3,M,0/0/1900,2022-07-07_10h53.12.221,168,test,Prioritise2,3,cross,triangle,square,circle,"1.0,-0.23416809090988489,0.11348302116348141","1.0,-0.22467733398512213,-0.5303566464837048","0.6526534052453359,0.32395804637990677,-1.0","-0.12538192785381974,0.49466166942996614,-0.0651744334368548",342,25,108,189,"-0.12538192785381974,0.49466166942996614,-0.0651744334368548",189,"-0.14097292288545527,0.4934633616179327,-0.004268922352566595",193,167,1.6235520000000179
Pri_ET_Study1_3,M,0/0/1900,2022-07-07_10h53.12.221,169,test,Prioritise3,0,cross,square,triangle,circle,"1.0,0.1513135807267587,-1.0","1.0,-0.289651960671372,-0.12741280502186536","0.04661056885000425,0.4151827959781793,0.5366388806382338","1.0,0.00043266500642058503,0.4945408245860483",78,359,238,309,"1.0,0.1513135807267587,-1.0",78,"1.0,-0.291416597096681,-0.18651092035548889",3,152,1.7882399000000078
Pri_ET_Study1_3,M,0/0/1900,2022-07-07_10h53.12.221,170,test,Prioritise3,2,triangle,cross,circle,square,"1.0,-0.2352776592018201,-0.4968859262116322","-0.06359610428535867,0.4935649245563736,-0.24027710533734647","0.7127176267031001,0.18557291042394586,0.6506302425082333","0.7836643519746782,0.2678576623980824,-1.0",23,178,284,97,"0.7127176267031001,0.18557291042394586,0.6506302425082333",284,"0.09017416231209929,0.4764835565228893,-0.581140049938324",159,17,2.183636700000079
Pri_ET_Study1_3,M,0/0/1900,2022-07-07_10h53.12.221,171,test,NoPrioritise,3,square,triangle,cross,circle,"0.8744524420551003,0.1077067653533772,0.5993718879433354","0.7954699681646173,0.26233143705175754,-1.0","1.0,-0.08353952619481586,-1.0","0.15891936573799903,0.3831804895186659,0.5999565135488085",295,96,46,247,"0.15891936573799903,0.3831804895186659,0.5999565135488085",247,"0.9898363577373541,0.15802139914365565,-1.0",79,289,2.9197276999998394
Pri_ET_Study1_3,M,0/0/1900,2022-07-07_10h53.12.221,172,test,NoPrioritise,2,triangle,square,circle,cross,"-0.06359610428535867,0.4935649245563736,-0.24027710533734647","0.37478692104604905,0.3159453148278393,0.6623940312376342","1.0,-0.015534070910116049,-1.0","1.0,-0.04666697700988032,0.4375655321668761",178,262,55,315,"1.0,-0.015534070910116049,-1.0",55,"1.0,0.08129056571751603,-1.0",68,73,2.3723117000004095
Pri_ET_Study1_3,M,0/0/1900,2022-07-07_10h53.12.221,173,test,NoPrioritise,3,circle,triangle,square,cross,"1.0,0.0885108071490186,-1.0","1.0,0.016090771115826907,0.5120159997035829","0.06286533759988822,0.4804846395944975,-0.5215000541421746","0.1997782184249719,0.37114427631595914,0.6168699381761522",69,307,162,250,"0.1997782184249719,0.37114427631595914,0.6168699381761522",250,"1.0,0.008268781307839035,0.5033766660072689",308,88,1.5524087999997391
Pri_ET_Study1_3,M,0/0/1900,2022-07-07_10h53.12.221,174,test,Prioritise4,2,square,circle,cross,triangle,"0.9026141269879491,0.09282770385166228,0.5869975937203944","0.3000437839717358,0.34032750492681907,0.6478023910819077","0.4397882380638529,0.39726260220805054,-1.0","1.0,0.0520116041796701,-1.0",297,257,126,64,"0.4397882380638529,0.39726260220805054,-1.0",126,"1.0,-0.04666697700988032,0.4375655321668761",315,15,1.6705474999998842
Pri_ET_Study1_3,M,0/0/1900,2022-07-07_10h53.12.221,175,test,NoPrioritise,3,circle,square,triangle,cross,"-0.14715582087117385,0.4925402828135286,0.025608434090147236","1.0,-0.015267259554568757,0.4762913260168815","0.5217173616076898,0.3714436344565344,-1.0","0.024156992038590452,0.42147876676365525,0.5201127943356356",195,311,119,236,"0.024156992038590452,0.42147876676365525,0.5201127943356356",236,"1.0,-0.10086551076024819,0.3631766774585774",322,340,2.5704430000000684
Pri_ET_Study1_3,M,0/0/1900,2022-07-07_10h53.12.221,176,test,Prioritise4,2,square,triangle,circle,cross,"0.509921421288337,0.37533864292099284,-1.0","0.8168605703912253,0.13684827598857496,0.6213530935889016","-0.03665861455697994,0.4386499069954206,0.4655003413302212","1.0,-0.14190666083918357,-0.7896703829265752",120,291,230,38,"-0.03665861455697994,0.4386499069954206,0.4655003413302212",230,"-0.045760705841983884,0.4412666063320212,0.45569155140365925",229,248,1.7678615999998328
Pri_ET_Study1_3,M,0/0/1900,2022-07-07_10h53.12.221,177,test,Prioritise1,1,triangle,cross,square,circle,"-0.12881863109484093,0.46745492896353924,0.32362925960524147","1.0,-0.1694459751095364,-0.6968170409133772","0.4511598862406947,0.28958122135142217,0.6706112376461497","0.8771865507724368,0.22170185938115816,-1.0",217,34,267,89,"1.0,-0.1694459751095364,-0.6968170409133772",34,"1.0,-0.2905255226561695,-0.14211314919909668",0,187,4.4101048000002265
Pri_ET_Study1_3,M,0/0/1900,2022-07-07_10h53.12.221,178,test,Prioritise4,1,cross,triangle,square,circle,"0.27079222332264496,0.349525727356639,0.6402021298134932","1.0,-0.06229796743051119,0.4171389626044979","1.0,-0.007959551777363516,-1.0","1.0,-0.283482916447115,-0.29186272671519153",255,317,56,10,"1.0,-0.06229796743051119,0.4171389626044979",317,"1.0,-0.19952917352700617,0.19318579588388318",336,359,1.952281899999889
Pri_ET_Study1_3,M,0/0/1900,2022-07-07_10h53.12.221,179,test,Prioritise4,0,circle,triangle,cross,square,"1.0,-0.283482916447115,-0.29186272671519153","1.0,0.031678509722878445,0.528693730626498","-0.0864279937772866,0.4533299305616785,0.40378459741649797","0.4630300053623657,0.39022810787803497,-1.0",10,305,224,124,"1.0,-0.283482916447115,-0.29186272671519153",10,"1.0,-0.2905255226561695,-0.14211314919909668",0,153,2.925778899999841
Pri_ET_Study1_3,M,0/0/1900,2022-07-07_10h53.12.221,180,test,Prioritise4,3,square,cross,circle,triangle,"1.0,0.10990102188412854,-1.0","0.49743207809976986,0.2728177294164349,0.672458831583457","0.15741439024530024,0.4651753747362595,-0.7441898531558468","1.0,-0.2583995670372059,-0.4160170008955538",72,270,152,18,"1.0,-0.2583995670372059,-0.4160170008955538",18,"-0.10043403746491275,0.49495767021285575,-0.14337977127983403",184,315,1.5506387999998879
Pri_ET_Study1_3,M,0/0/1900,2022-07-07_10h53.12.221,181,test,Prioritise2,1,cross,square,circle,triangle,"0.15741439024530024,0.4651753747362595,-0.7441898531558468","1.0,-0.27259515439613147,-0.011730747350127468","-0.07115460775268467,0.4487065849390661,0.42510855757080535","0.6048714455845987,0.34221696469187823,-1.0",152,351,226,112,"1.0,-0.27259515439613147,-0.011730747350127468",351,"0.003196340864616065,0.48789947231709707,-0.3930376390559923",169,98,2.9337499000002936
Pri_ET_Study1_3,M,0/0/1900,2022-07-07_10h53.12.221,182,test,Prioritise3,1,cross,square,circle,triangle,"1.0,-0.16269839246793216,-0.7181852224820324","0.37106831880418345,0.41675617985472035,-1.0","1.0,-0.19319706407583936,0.20612000948251996","-0.14715582087117385,0.4925402828135286,0.025608434090147236",35,132,335,195,"0.37106831880418345,0.41675617985472035,-1.0",132,"0.10691635848548953,0.39815526341168916,0.5740986907036785",243,224,1.6449643000000833
Pri_ET_Study1_3,M,0/0/1900,2022-07-07_10h53.12.221,183,test,Prioritise1,1,cross,circle,square,triangle,"0.28536486694739915,0.3449661378960809,0.6441272460635925","1.0,-0.16269839246793216,-0.7181852224820324","1.0,0.14454808295369936,-1.0","0.45139045294854396,0.393779284417197,-1.0",256,35,77,125,"1.0,-0.16269839246793216,-0.7181852224820324",35,"-0.12085421394465079,0.49482727509491764,-0.08063336981743141",188,219,4.551277900000059
Pri_ET_Study1_3,M,0/0/1900,2022-07-07_10h53.12.221,184,test,Prioritise4,1,circle,square,cross,triangle,"0.19781922438295352,0.4574422518266765,-0.8818361039644314","-0.05454842094763246,0.44381461100324726,0.4456881091586087","1.0,-0.08353952619481586,-1.0","0.984183681480933,0.0471694796759472,0.544551712303033",148,228,46,303,"-0.05454842094763246,0.44381461100324726,0.4456881091586087",228,"0.024156992038590452,0.42147876676365525,0.5201127943356356",236,29,1.816758800000116
Pri_ET_Study1_3,M,0/0/1900,2022-07-07_10h53.12.221,185,test,Prioritise1,0,square,triangle,circle,cross,"-0.15691856372514257,0.4811251279442219,0.20925454252068332","1.0,0.1377261376429495,-1.0","1.0,-0.1159761024614836,0.3405028198215041","0.5747774279545166,0.24332959852807035,0.670395358395977",208,76,324,275,"-0.15691856372514257,0.4811251279442219,0.20925454252068332",208,"-0.07115460775268467,0.4487065849390661,0.42510855757080535",226,120,3.7312525000002097
Pri_ET_Study1_3,M,0/0/1900,2022-07-07_10h53.12.221,186,test,Prioritise2,0,circle,cross,triangle,square,"-0.1598212484830719,0.4866460428277808,0.1409432704458322","1.0,-0.10844910144201803,0.3519141850209708","0.6765582342033039,0.31440040312493167,-1.0","0.07186027412725471,0.47920645949573504,-0.5409731165987569",203,323,106,161,"-0.1598212484830719,0.4866460428277808,0.1409432704458322",203,"0.2715377535601935,0.44160513045338035,-1.0",141,77,3.016756600000008
Pri_ET_Study1_3,M,0/0/1900,2022-07-07_10h53.12.221,187,test,NoPrioritise,3,triangle,square,circle,cross,"-0.0864279937772866,0.4533299305616785,0.40378459741649797","0.5691306813430501,0.3551652128948415,-1.0","0.697563521415238,0.19227379976898162,0.6538323072937366","1.0,-0.29111130123666484,-0.15686324257888173",224,115,283,1,"1.0,-0.29111130123666484,-0.15686324257888173",1,"0.9575099088241161,0.0625393185362546,0.5595685159060846",301,125,1.4862865999998576
Pri_ET_Study1_3,M,0/0/1900,2022-07-07_10h53.12.221,188,test,Prioritise1,1,cross,circle,triangle,square,"0.04661056885000425,0.4151827959781793,0.5366388806382338","1.0,-0.20149881210311282,-0.6002331830476271","0.09948789533259128,0.47503830359136323,-0.601955130836429","1.0,-0.17339639938985352,0.2442586263282529",238,29,158,332,"1.0,-0.20149881210311282,-0.6002331830476271",29,"1.0,-0.29113614091237483,-0.20140827106110581",4,167,2.6013825999998517
Pri_ET_Study1_3,M,0/0/1900,2022-07-07_10h53.12.221,189,test,Prioritise3,1,cross,triangle,circle,square,"0.2563330525591274,0.3540064263668754,0.6360281906414551","-0.15691856372514257,0.4811251279442219,0.20925454252068332","1.0,-0.18672585607811187,0.21894575397790916","0.2607905457923898,0.44405077031286466,-1.0",254,208,334,142,"-0.15691856372514257,0.4811251279442219,0.20925454252068332",208,"0.6885060196604067,0.3095143481419429,-1.0",105,254,1.3196778999999879
Pri_ET_Study1_3,M,0/0/1900,2022-07-07_10h53.12.221,190,test,Prioritise4,0,cross,square,triangle,circle,"0.7874973343482177,0.15108074255601633,0.6309286527694675","1.0,-0.14892208927791584,-0.7642951287839744","0.6407010103455535,0.32862970770224886,-1.0","1.0,-0.24898244687401672,0.0724226931177736",289,37,109,345,"0.7874973343482177,0.15108074255601633,0.6309286527694675",289,"1.0,-0.15254529173699993,0.2813312795320311",329,352,3.5850201000002926
Pri_ET_Study1_3,M,0/0/1900,2022-07-07_10h53.12.221,191,test,Prioritise3,2,square,cross,circle,triangle,"0.7428418032534498,0.17196979648312705,0.6434837115546581","-0.02724900693809007,0.43596400275120595,0.47511170232003863","0.8656291340184048,0.2277117481201254,-1.0","1.0,-0.23930972970484676,0.09987881270213972",286,231,90,343,"0.8656291340184048,0.2277117481201254,-1.0",90,"1.0,-0.03828278687151976,-1.0",52,187,2.006629100000282
Pri_ET_Study1_3,M,0/0/1900,2022-07-07_10h53.12.221,192,test,Prioritise3,2,circle,square,cross,triangle,"1.0,-0.07604755533137741,-1.0","0.3262451978832188,0.42843842117143094,-1.0","0.17237529551869346,0.3792456671279014,0.6058334931269098","1.0,-0.19319706407583936,0.20612000948251996",47,136,248,335,"0.17237529551869346,0.3792456671279014,0.6058334931269098",248,"0.27079222332264496,0.349525727356639,0.6402021298134932",255,1,2.218247999999676
Pri_ET_Study1_3,M,0/0/1900,2022-07-07_10h53.12.221,193,test,Prioritise1,3,triangle,cross,circle,square,"0.7874973343482177,0.15108074255601633,0.6309286527694675","1.0,-0.00039510366743955583,-1.0","0.2081252941518954,0.4553611512282272,-0.9356957589344492","1.0,-0.23416809090988489,0.11348302116348141",289,57,147,342,"1.0,-0.23416809090988489,0.11348302116348141",342,"0.7004475934634664,0.30455679594870433,-1.0",104,15,2.4144586000002164
Pri_ET_Study1_3,M,0/0/1900,2022-07-07_10h53.12.221,194,test,Prioritise2,0,square,cross,circle,triangle,"1.0,-0.030699357614306977,-1.0","-0.08288077159008311,0.49449913405181634,-0.1914000323192474","0.8168605703912253,0.13684827598857496,0.6213530935889016","0.509921421288337,0.37533864292099284,-1.0",53,181,291,120,"1.0,-0.030699357614306977,-1.0",53,"1.0,-0.053431764767480794,-1.0",50,156,1.6022757999999158
Pri_ET_Study1_3,M,0/0/1900,2022-07-07_10h53.12.221,195,test,Prioritise4,1,cross,circle,triangle,square,"0.5691306813430501,0.3551652128948415,-1.0","0.9303101871846857,0.07776559495072588,0.5737236459068971","-0.09355100115627091,0.45554214766479406,0.3928507547204487","1.0,-0.23006636068103248,-0.5135224369802548",115,299,223,24,"0.9303101871846857,0.07776559495072588,0.5737236459068971",299,"0.8168605703912253,0.13684827598857496,0.6213530935889016",291,137,2.304578700000093
Pri_ET_Study1_3,M,0/0/1900,2022-07-07_10h53.12.221,196,test,Prioritise3,1,cross,square,triangle,circle,"1.0,0.023895135487088437,0.520455959599228","-0.15857178695416452,0.48845422840718666,0.1127707600476957","1.0,-0.07604755533137741,-1.0","0.3148218664135791,0.3356097028178475,0.6512264970146455",306,201,47,258,"-0.15857178695416452,0.48845422840718666,0.1127707600476957",201,"1.0,-0.2696580629443429,-0.3688697412252795",15,30,1.9747546999997212
Pri_ET_Study1_3,M,0/0/1900,2022-07-07_10h53.12.221,197,test,NoPrioritise,2,cross,square,triangle,circle,"0.09017416231209929,0.4764835565228893,-0.581140049938324","1.0,0.11693500061052231,-1.0","1.0,0.00043266500642058503,0.4945408245860483","1.0,-0.2541916545294901,-0.43193236346031305",159,73,309,19,"1.0,0.00043266500642058503,0.4945408245860483",309,"-0.09355100115627091,0.45554214766479406,0.3928507547204487",223,12,2.105165599999964
Pri_ET_Study1_3,M,0/0/1900,2022-07-07_10h53.12.221,198,test,Prioritise1,1,square,triangle,circle,cross,"-0.07115460775268467,0.4487065849390661,0.42510855757080535","0.9303101871846857,0.07776559495072588,0.5737236459068971","0.1673887875274096,0.46333008938060627,-0.7729226224565875","1.0,0.1513135807267587,-1.0",226,299,151,78,"0.9303101871846857,0.07776559495072588,0.5737236459068971",299,"0.5438403016684124,0.25535465854340766,0.6719910833849003",273,122,2.389021799999682
Pri_ET_Study1_3,M,0/0/1900,2022-07-07_10h53.12.221,199,test,Prioritise4,2,circle,cross,triangle,square,"1.0,-0.20149881210311282,-0.6002331830476271","0.13253781604398185,0.3908200528647623,0.5874938236427092","0.9788490541088481,0.1646703741338249,-1.0","0.3937919637711427,0.41052389502637143,-1.0",29,245,80,130,"0.9788490541088481,0.1646703741338249,-1.0",80,"1.0,0.022205290041545256,-1.0",60,285,1.7825654999996914
Pri_ET_Study1_3,M,0/0/1900,2022-07-07_10h53.12.221,200,test,Prioritise4,2,triangle,square,cross,circle,"0.4981526525436166,0.3791643150394166,-1.0","1.0,-0.10580765013847959,-0.9756165541078137","0.18599750731146814,0.3752337008299145,0.6114718629309206","0.8022226392771252,0.14399413187212562,0.6262603189685363",121,43,249,290,"0.18599750731146814,0.3752337008299145,0.6114718629309206",249,"0.7428418032534498,0.17196979648312705,0.6434837115546581",286,98,1.5283652999996775
Pri_ET_Study1_3,M,0/0/1900,2022-07-07_10h53.12.221,201,test,Prioritise2,1,triangle,square,circle,cross,"1.0,-0.1694459751095364,-0.6968170409133772","0.5810306884554026,0.3509198779468534,-1.0","-0.020427730643879483,0.49026716567376205,-0.3409363637973366","0.11962807502985351,0.3945255124543332,0.5809118383777745",34,114,172,244,"0.5810306884554026,0.3509198779468534,-1.0",114,"-0.04273264564935253,0.4921547641531523,-0.29008164886068233",175,230,1.6120669000001726
Pri_ET_Study1_3,M,0/0/1900,2022-07-07_10h53.12.221,202,test,NoPrioritise,1,triangle,cross,square,circle,"1.0,-0.29111130123666484,-0.15686324257888173","0.18599750731146814,0.3752337008299145,0.6114718629309206","-0.020427730643879483,0.49026716567376205,-0.3409363637973366","1.0,-0.00039510366743955583,-1.0",1,249,172,57,"0.18599750731146814,0.3752337008299145,0.6114718629309206",249,"-0.10032491436032498,0.45768874039972984,0.3817396096664756",222,213,2.389103499999692
Pri_ET_Study1_3,M,0/0/1900,2022-07-07_10h53.12.221,203,test,Prioritise1,1,square,triangle,circle,cross,"0.25011230249462657,0.4464347244570299,-1.0","0.6210691465439071,0.22472865664823272,0.6660842894513506","0.8656291340184048,0.2277117481201254,-1.0","1.0,-0.12344048141961106,0.3289459564990056",143,278,90,325,"0.6210691465439071,0.22472865664823272,0.6660842894513506",278,"1.0,-0.2352776592018201,-0.4968859262116322",23,26,2.3928941999993185
Pri_ET_Study1_3,M,0/0/1900,2022-07-07_10h53.12.221,204,test,NoPrioritise,2,circle,square,triangle,cross,"1.0,-0.283482916447115,-0.29186272671519153","-0.1160886962144162,0.49493957268076216,-0.09618366371381681","0.9439739668489959,0.07017173146500566,0.5667550331301558","0.6048714455845987,0.34221696469187823,-1.0",10,187,300,112,"0.9439739668489959,0.07017173146500566,0.5667550331301558",300,"0.9001622899209403,0.20948101299508481,-1.0",87,14,1.6507523999998739
Pri_ET_Study1_3,M,0/0/1900,2022-07-07_10h53.12.221,205,test,Prioritise1,3,triangle,square,cross,circle,"1.0,0.09568719202827336,-1.0","0.28235212283095645,0.4390974279014652,-1.0","1.0,-0.28331765203541326,-0.06912673399707303","0.5283655398475315,0.26125276704655587,0.6724040666408482",70,140,355,272,"0.5283655398475315,0.26125276704655587,0.6724040666408482",272,"-0.1481252589400609,0.4756545429797898,0.26153874370652797",212,204,1.8215534000000844
Pri_ET_Study1_3,M,0/0/1900,2022-07-07_10h53.12.221,206,test,NoPrioritise,3,square,circle,cross,triangle,"1.0,0.1377261376429495,-1.0","1.0,-0.2117453636986133,0.16700499532847024","0.4981526525436166,0.3791643150394166,-1.0","0.8168605703912253,0.13684827598857496,0.6213530935889016",76,338,121,291,"0.8168605703912253,0.13684827598857496,0.6213530935889016",291,"0.5902286499321849,0.2372037618456999,0.6692134526599127",276,205,1.6666824999992969
Pri_ET_Study1_3,M,0/0/1900,2022-07-07_10h53.12.221,207,test,Prioritise1,3,cross,square,circle,triangle,"0.6056610145008174,0.2310032177113197,0.6677762187869551","0.14752787305018233,0.4669625621869047,-0.7174796825499677","1.0,0.01469043779870538,-1.0","0.6287517000804042,0.333230015934751,-1.0",277,153,59,110,"0.6287517000804042,0.333230015934751,-1.0",110,"0.1774490411200258,0.4614263698132157,-0.8044096137074778",150,278,1.5031126000003496
Pri_ET_Study1_3,M,0/0/1900,2022-07-07_10h53.12.221,208,test,Prioritise1,3,square,triangle,cross,circle,"0.07186027412725471,0.47920645949573504,-0.5409731165987569","0.8307090529045498,0.2453327610063578,-1.0","0.1997782184249719,0.37114427631595914,0.6168699381761522","1.0,-0.24976805918886447,-0.4479639557291707",161,93,250,20,"1.0,-0.24976805918886447,-0.4479639557291707",20,"0.7428418032534498,0.17196979648312705,0.6434837115546581",286,212,1.6571223000000828
Pri_ET_Study1_3,M,0/0/1900,2022-07-07_10h53.12.221,209,test,Prioritise1,3,triangle,circle,cross,square,"0.7428418032534498,0.17196979648312705,0.6434837115546581","-0.14097292288545527,0.4934633616179327,-0.004268922352566595","1.0,-0.18672585607811187,0.21894575397790916","0.8886984490493344,0.21562474761751438,-1.0",286,193,334,88,"0.8886984490493344,0.21562474761751438,-1.0",88,"0.6526534052453359,0.32395804637990677,-1.0",108,223,3.414240499999323
Pri_ET_Study1_3,M,0/0/1900,2022-07-07_10h53.12.221,210,test,Prioritise3,1,triangle,cross,circle,square,"-0.12538192785381974,0.49466166942996614,-0.0651744334368548","0.002753009035763032,0.42748599986642954,0.5027340537090634","0.7578023835242338,0.165070026077772,0.63954193062201","0.5217173616076898,0.3714436344565344,-1.0",189,234,287,119,"0.002753009035763032,0.42748599986642954,0.5027340537090634",234,"-0.07115460775268467,0.4487065849390661,0.42510855757080535",226,257,3.4216266999992513
Pri_ET_Study1_3,M,0/0/1900,2022-07-07_10h53.12.221,211,test,Prioritise4,0,triangle,cross,square,circle,"1.0,-0.1694459751095364,-0.6968170409133772","0.8656291340184048,0.2277117481201254,-1.0","-0.1415152911985038,0.4725588943334964,0.2868282896334675","1.0,-0.1801231371030828,0.23165973332613699",34,90,214,333,"1.0,-0.1694459751095364,-0.6968170409133772",34,"1.0,-0.2905255226561695,-0.14211314919909668",0,76,2.407083500000226
