id,gender,dob,date,n_trial,test_stage,condition,tested_position,shape_0,shape_1,shape_2,shape_3,color_0,color_1,color_2,color_3,color_angle_0,color_angle_1,color_angle_2,color_angle_3,correct_response,correct_response_angle,response,response_angle,wheel_rotation,reaction_time
Pri_ET_Study1_2,M,0/0/1900,2022-06-24_14h18.49.320,1,practice_pri,Prioritise3,3,cross,square,triangle,circle,"-0.12538192785381974,0.49466166942996614,-0.0651744334368548","1.0,-0.291416597096681,-0.18651092035548889","1.0,0.05938674364207741,-1.0","0.07004997715874661,0.40859431628906884,0.5522929170622126",189,3,65,240,"0.07004997715874661,0.40859431628906884,0.5522929170622126",240,"1.0,0.12391818455152381,-1.0",74,161,5.7213166999999885
Pri_ET_Study1_2,M,0/0/1900,2022-06-24_14h18.49.320,2,practice_pri,Prioritise1,0,square,circle,triangle,cross,"0.6364477477613335,0.21838082541010184,0.6641383826852352","0.8771865507724368,0.22170185938115816,-1.0","0.09017416231209929,0.4764835565228893,-0.581140049938324","1.0,-0.28704790815198966,-0.09816451385922986",279,89,159,357,"0.6364477477613335,0.21838082541010184,0.6641383826852352",279,"0.4665589352747248,0.2840716923699367,0.6714844115718321",268,134,3.3716938000000027
Pri_ET_Study1_2,M,0/0/1900,2022-06-24_14h18.49.320,3,practice_pri,NoPrioritise,1,cross,triangle,circle,square,"1.0,-0.20149881210311282,-0.6002331830476271","1.0,-0.0855518419522695,0.38524161028667625","0.4397882380638529,0.39726260220805054,-1.0","-0.15857178695416452,0.48845422840718666,0.1127707600476957",29,320,126,201,"1.0,-0.0855518419522695,0.38524161028667625",320,"1.0,-0.07783297952557244,0.3960373748090056",319,223,2.670070600000031
Pri_ET_Study1_2,M,0/0/1900,2022-06-24_14h18.49.320,4,practice_pri,Prioritise2,3,square,cross,triangle,circle,"0.8744524420551003,0.1077067653533772,0.5993718879433354","-0.15971287347422924,0.4846106035432911,0.16864202556096686","1.0,-0.27293323902243416,-0.35332683897484074","0.18599750731146814,0.3752337008299145,0.6114718629309206",295,205,14,249,"0.18599750731146814,0.3752337008299145,0.6114718629309206",249,"0.04661056885000425,0.4151827959781793,0.5366388806382338",238,290,8.189518799999973
Pri_ET_Study1_2,M,0/0/1900,2022-06-24_14h18.49.320,5,practice_pri,Prioritise4,1,cross,circle,triangle,square,"-0.06301515924349677,0.44629443292921844,0.43549282839157066","0.8423878648894922,0.2395276862660105,-1.0","1.0,-0.053431764767480794,-1.0","-0.07663707943429687,0.49424057193593485,-0.2075945922293636",227,92,50,180,"0.8423878648894922,0.2395276862660105,-1.0",92,"-0.15691856372514257,0.4811251279442219,0.20925454252068332",208,291,5.716774600000008
Pri_ET_Study1_2,M,0/0/1900,2022-06-24_14h18.49.320,1,test,NoPrioritise,3,circle,cross,square,triangle,"-0.137653653553384,0.47091943313012696,0.2992494234533911","0.3000437839717358,0.34032750492681907,0.6478023910819077","0.5453823652594301,0.36344457638027117,-1.0","1.0,-0.1308360377071882,0.3172469791017578",215,257,117,326,"1.0,-0.1308360377071882,0.3172469791017578",326,"1.0,-0.2288330890480459,0.12700076968242469",341,218,2.784406600000011
Pri_ET_Study1_2,M,0/0/1900,2022-06-24_14h18.49.320,2,test,Prioritise3,1,cross,triangle,square,circle,"1.0,-0.24030349193845646,-0.4804258498410512","0.6364477477613335,0.21838082541010184,0.6641383826852352","-0.14500574250124976,0.47413711311303364,0.2742570559677715","0.9677931896988998,0.1712594071065523,-1.0",22,279,213,81,"0.6364477477613335,0.21838082541010184,0.6641383826852352",279,"-0.10043403746491275,0.49495767021285575,-0.14337977127983403",184,196,5.56533950000005
Pri_ET_Study1_2,M,0/0/1900,2022-06-24_14h18.49.320,3,test,Prioritise1,0,cross,circle,triangle,square,"1.0,-0.060989074760531836,-1.0","0.8885895249151152,0.10029123080933622,0.593298310174416","0.6287517000804042,0.333230015934751,-1.0","0.002753009035763032,0.42748599986642954,0.5027340537090634",49,296,110,234,"1.0,-0.060989074760531836,-1.0",49,"1.0,-0.14892208927791584,-0.7642951287839744",37,191,3.182019500000024
Pri_ET_Study1_2,M,0/0/1900,2022-06-24_14h18.49.320,4,test,Prioritise1,1,triangle,square,circle,cross,"1.0,-0.20571451687417974,0.18014638001872707","-0.15325530146069954,0.47850880592239364,0.23567289266690317","0.8423878648894922,0.2395276862660105,-1.0","0.6823545184579658,0.19890605819631269,0.6567852503614975",337,210,92,282,"-0.15325530146069954,0.47850880592239364,0.23567289266690317",210,"-0.02724900693809007,0.43596400275120595,0.47511170232003863",231,237,5.468939300000102
Pri_ET_Study1_2,M,0/0/1900,2022-06-24_14h18.49.320,5,test,Prioritise4,1,triangle,cross,square,circle,"0.6885060196604067,0.3095143481419429,-1.0","-0.09478536258948067,0.49485771099788134,-0.15929400236046964","1.0,0.023895135487088437,0.520455959599228","1.0,-0.266139671692747,-0.3844942650329082",105,183,306,16,"-0.09478536258948067,0.49485771099788134,-0.15929400236046964",183,"1.0,-0.2133971103908915,-0.5647212078646006",27,155,4.019585000000006
Pri_ET_Study1_2,M,0/0/1900,2022-06-24_14h18.49.320,6,test,NoPrioritise,1,triangle,cross,square,circle,"0.058211064666331636,0.41192535001918484,0.5445760826660213","0.7278119810668549,0.17880451220180715,0.6471802765379799","0.7481042841002781,0.28401253410301863,-1.0","1.0,-0.20752138035248524,-0.5823144238115788",239,285,100,28,"0.7278119810668549,0.17880451220180715,0.6471802765379799",285,"-0.10043403746491275,0.49495767021285575,-0.14337977127983403",184,264,5.037533199999984
Pri_ET_Study1_2,M,0/0/1900,2022-06-24_14h18.49.320,7,test,Prioritise1,2,circle,cross,triangle,square,"1.0,-0.00039510366743955583,-1.0","-0.0864279937772866,0.4533299305616785,0.40378459741649797","0.4282253351913974,0.40067838587068505,-1.0","-0.08288077159008311,0.49449913405181634,-0.1914000323192474",57,224,127,181,"0.4282253351913974,0.40067838587068505,-1.0",127,"-0.01269399205840449,0.48953144240138324,-0.3581525544909092",171,82,3.591885599999955
Pri_ET_Study1_2,M,0/0/1900,2022-06-24_14h18.49.320,8,test,Prioritise3,3,square,triangle,circle,cross,"-0.07115460775268467,0.4487065849390661,0.42510855757080535","1.0,-0.2583995670372059,-0.4160170008955538","0.19781922438295352,0.4574422518266765,-0.8818361039644314","1.0,-0.015267259554568757,0.4762913260168815",226,18,148,311,"1.0,-0.015267259554568757,0.4762913260168815",311,"0.19781922438295352,0.4574422518266765,-0.8818361039644314",148,359,8.10994519999997
Pri_ET_Study1_2,M,0/0/1900,2022-06-24_14h18.49.320,9,test,Prioritise2,3,square,triangle,circle,cross,"0.5747774279545166,0.24332959852807035,0.670395358395977","1.0,-0.24898244687401672,0.0724226931177736","0.9788490541088481,0.1646703741338249,-1.0","0.06286533759988822,0.4804846395944975,-0.5215000541421746",275,345,80,162,"0.06286533759988822,0.4804846395944975,-0.5215000541421746",162,"1.0,0.031678509722878445,0.528693730626498",305,351,8.506552300000067
Pri_ET_Study1_2,M,0/0/1900,2022-06-24_14h18.49.320,10,test,Prioritise1,0,triangle,circle,cross,square,"0.15891936573799903,0.3831804895186659,0.5999565135488085","1.0,0.11693500061052231,-1.0","-0.10587186235375057,0.4950046804635242,-0.12755688133261178","0.7726890832158932,0.15810653737494773,0.6353563968956581",247,73,185,288,"0.15891936573799903,0.3831804895186659,0.5999565135488085",247,"0.002753009035763032,0.42748599986642954,0.5027340537090634",234,26,3.1586238999999523
Pri_ET_Study1_2,M,0/0/1900,2022-06-24_14h18.49.320,11,test,Prioritise2,1,square,cross,circle,triangle,"0.37106831880418345,0.41675617985472035,-1.0","-0.15325530146069954,0.47850880592239364,0.23567289266690317","1.0,-0.25349859092244853,0.058576446168723484","1.0,-0.030699357614306977,-1.0",132,210,346,53,"-0.15325530146069954,0.47850880592239364,0.23567289266690317",210,"-0.1599394399400429,0.4856569012506431,0.15485318992015062",204,234,3.3779744000000846
Pri_ET_Study1_2,M,0/0/1900,2022-06-24_14h18.49.320,12,test,Prioritise4,1,cross,circle,square,triangle,"0.984183681480933,0.0471694796759472,0.544551712303033","-0.11280811015512238,0.4617870748317987,0.35899735609320693","0.2715377535601935,0.44160513045338035,-1.0","1.0,0.12391818455152381,-1.0",303,220,141,74,"-0.11280811015512238,0.4617870748317987,0.35899735609320693",220,"0.21370971933434912,0.36697709911931464,0.6220261074603506",251,19,8.057293400000049
Pri_ET_Study1_2,M,0/0/1900,2022-06-24_14h18.49.320,13,test,Prioritise4,3,square,triangle,circle,cross,"0.37106831880418345,0.41675617985472035,-1.0","-0.15913672951032076,0.48350679120805196,0.18230705521727808","1.0,-0.12344048141961106,0.3289459564990056","1.0,0.05938674364207741,-1.0",132,206,325,65,"1.0,0.05938674364207741,-1.0",65,"1.0,0.1513135807267587,-1.0",78,132,3.7666260999999395
Pri_ET_Study1_2,M,0/0/1900,2022-06-24_14h18.49.320,14,test,Prioritise3,2,triangle,cross,circle,square,"0.19781922438295352,0.4574422518266765,-0.8818361039644314","1.0,-0.24976805918886447,-0.4479639557291707","0.6885060196604067,0.3095143481419429,-1.0","0.2419946445565604,0.35840841428502257,0.6316066564714324",148,20,105,253,"0.6885060196604067,0.3095143481419429,-1.0",105,"0.8886984490493344,0.21562474761751438,-1.0",88,122,2.7880859000000555
Pri_ET_Study1_2,M,0/0/1900,2022-06-24_14h18.49.320,15,test,Prioritise3,3,triangle,circle,square,cross,"0.6048714455845987,0.34221696469187823,-1.0","0.6823545184579658,0.19890605819631269,0.6567852503614975","-0.1598212484830719,0.4866460428277808,0.1409432704458322","1.0,-0.2784883645829067,-0.04031082501765193",112,282,203,353,"1.0,-0.2784883645829067,-0.04031082501765193",353,"-0.1582066093163167,0.48234509352938293,0.19584550247902222",207,304,5.974915300000021
Pri_ET_Study1_2,M,0/0/1900,2022-06-24_14h18.49.320,16,test,Prioritise1,3,triangle,square,cross,circle,"1.0,-0.2914084206358549,-0.1716625835351976","0.2563330525591274,0.3540064263668754,0.6360281906414551","1.0,0.10281785561567158,-1.0","0.28235212283095645,0.4390974279014652,-1.0",2,254,71,140,"0.28235212283095645,0.4390974279014652,-1.0",140,"0.7954699681646173,0.26233143705175754,-1.0",96,95,6.570700500000044
Pri_ET_Study1_2,M,0/0/1900,2022-06-24_14h18.49.320,17,test,Prioritise1,2,square,triangle,circle,cross,"0.4051864188365102,0.30563705046778256,0.6664498358678796","0.7599790593392,0.278698430329378,-1.0","-0.03545149328753128,0.4915787209123279,-0.3069086161051545","1.0,-0.007413941176475647,0.4855113905503705",264,99,174,310,"-0.03545149328753128,0.4915787209123279,-0.3069086161051545",174,"0.09441071644993415,0.40170970408167506,0.5670564126145141",242,305,7.688958800000023
Pri_ET_Study1_2,M,0/0/1900,2022-06-24_14h18.49.320,18,test,Prioritise3,0,triangle,cross,circle,square,"1.0,-0.28715474606071,-0.26149890951485844","0.4630300053623657,0.39022810787803497,-1.0","-0.03545149328753128,0.4915787209123279,-0.3069086161051545","1.0,0.03716450464441401,-1.0",8,124,174,62,"1.0,-0.28715474606071,-0.26149890951485844",8,"1.0,0.023895135487088437,0.520455959599228",306,281,6.766817900000092
Pri_ET_Study1_2,M,0/0/1900,2022-06-24_14h18.49.320,19,test,Prioritise4,3,triangle,cross,square,circle,"1.0,-0.2905679542092485,-0.21635494529981825","0.6823545184579658,0.19890605819631269,0.6567852503614975","-0.15325530146069954,0.47850880592239364,0.23567289266690317","0.509921421288337,0.37533864292099284,-1.0",5,282,210,120,"0.509921421288337,0.37533864292099284,-1.0",120,"0.47470490157818523,0.38660875671905104,-1.0",123,178,3.993725799999993
Pri_ET_Study1_2,M,0/0/1900,2022-06-24_14h18.49.320,20,test,Prioritise4,0,circle,triangle,square,cross,"1.0,-0.06852917744512788,-1.0","0.1774490411200258,0.4614263698132157,-0.8044096137074778","0.8744524420551003,0.1077067653533772,0.5993718879433354","-0.0864279937772866,0.4533299305616785,0.40378459741649797",48,150,295,224,"1.0,-0.06852917744512788,-1.0",48,"-0.017538974095646753,0.43320838581829424,0.48452289736445553",232,40,6.498343299999988
Pri_ET_Study1_2,M,0/0/1900,2022-06-24_14h18.49.320,21,test,Prioritise4,2,cross,circle,square,triangle,"1.0,0.022205290041545256,-1.0","-0.04273264564935253,0.4921547641531523,-0.29008164886068233","0.5747774279545166,0.24332959852807035,0.670395358395977","1.0,-0.2914084206358549,-0.1716625835351976",60,175,275,2,"0.5747774279545166,0.24332959852807035,0.670395358395977",275,"1.0,-0.24898244687401672,0.0724226931177736",345,221,7.930262399999947
Pri_ET_Study1_2,M,0/0/1900,2022-06-24_14h18.49.320,22,test,NoPrioritise,2,cross,triangle,circle,square,"0.911575527904773,0.20327130372654878,-1.0","0.4511598862406947,0.28958122135142217,0.6706112376461497","1.0,-0.2885749142137033,-0.24639910949319843","0.02803139784776887,0.4850479085911541,-0.44669070010662637",86,267,7,166,"1.0,-0.2885749142137033,-0.24639910949319843",7,"0.41670369996421397,0.40402696808005323,-1.0",128,117,9.139183900000035
Pri_ET_Study1_2,M,0/0/1900,2022-06-24_14h18.49.320,23,test,Prioritise4,2,circle,square,cross,triangle,"1.0,-0.23416809090988489,0.11348302116348141","1.0,-0.16269839246793216,-0.7181852224820324","0.9898363577373541,0.15802139914365565,-1.0","0.1377313063497616,0.46869198128419454,-0.6923217342230605",342,35,79,154,"0.9898363577373541,0.15802139914365565,-1.0",79,"0.854028730639278,0.2336538600688729,-1.0",91,246,5.184478000000013
Pri_ET_Study1_2,M,0/0/1900,2022-06-24_14h18.49.320,24,test,Prioritise4,1,square,triangle,circle,cross,"-0.11850987372908683,0.4637398184337027,0.34737226103556385","1.0,-0.27293323902243416,-0.35332683897484074","0.4051864188365102,0.30563705046778256,0.6664498358678796","1.0,0.0520116041796701,-1.0",219,14,264,64,"1.0,-0.27293323902243416,-0.35332683897484074",14,"0.3373683384989987,0.425614728337375,-1.0",135,335,7.029601899999989
Pri_ET_Study1_2,M,0/0/1900,2022-06-24_14h18.49.320,25,test,Prioritise4,0,circle,triangle,cross,square,"0.13253781604398185,0.3908200528647623,0.5874938236427092","-0.11109230792064029,0.494998675286374,-0.11182488810932678","0.6168077568629242,0.33775906377670717,-1.0","1.0,-0.176090722701999,-0.6762956704638035",245,186,111,33,"0.13253781604398185,0.3908200528647623,0.5874938236427092",245,"0.19781922438295352,0.4574422518266765,-0.8818361039644314",148,329,10.400582099999838
Pri_ET_Study1_2,M,0/0/1900,2022-06-24_14h18.49.320,26,test,Prioritise2,1,cross,triangle,circle,square,"0.984183681480933,0.0471694796759472,0.544551712303033","-0.15691856372514257,0.4811251279442219,0.20925454252068332","1.0,-0.060989074760531836,-1.0","1.0,-0.291416597096681,-0.18651092035548889",303,208,49,3,"-0.15691856372514257,0.4811251279442219,0.20925454252068332",208,"-0.0889322071979689,0.49470485377678974,-0.17530036558846096",182,16,3.8495362000001023
Pri_ET_Study1_2,M,0/0/1900,2022-06-24_14h18.49.320,27,test,Prioritise4,0,triangle,cross,square,circle,"1.0,-0.29111130123666484,-0.15686324257888173","0.37106831880418345,0.41675617985472035,-1.0","1.0,-0.07783297952557244,0.3960373748090056","-0.14097292288545527,0.4934633616179327,-0.004268922352566595",1,132,319,193,"1.0,-0.29111130123666484,-0.15686324257888173",1,"1.0,-0.291416597096681,-0.18651092035548889",3,182,4.3669077000001835
Pri_ET_Study1_2,M,0/0/1900,2022-06-24_14h18.49.320,28,test,NoPrioritise,0,cross,circle,triangle,square,"0.0809641014742315,0.4778728517952051,-0.560834903418019","1.0,-0.2812391217555803,-0.30713162009795525","0.8168605703912253,0.13684827598857496,0.6213530935889016","0.6526534052453359,0.32395804637990677,-1.0",160,11,291,108,"0.0809641014742315,0.4778728517952051,-0.560834903418019",160,"-0.045760705841983884,0.4412666063320212,0.45569155140365925",229,331,6.868396700000176
Pri_ET_Study1_2,M,0/0/1900,2022-06-24_14h18.49.320,29,test,Prioritise4,2,triangle,circle,cross,square,"1.0,-0.2905679542092485,-0.21635494529981825","1.0,-0.10086551076024819,0.3631766774585774","1.0,0.022205290041545256,-1.0","-0.1598212484830719,0.4866460428277808,0.1409432704458322",5,322,60,203,"1.0,0.022205290041545256,-1.0",60,"0.8307090529045498,0.2453327610063578,-1.0",93,179,7.1685929000000215
Pri_ET_Study1_2,M,0/0/1900,2022-06-24_14h18.49.320,30,test,NoPrioritise,0,circle,triangle,cross,square,"-0.1336957186097738,0.49417000388378884,-0.03453353894846056","0.7278119810668549,0.17880451220180715,0.6471802765379799","1.0,-0.17339639938985352,0.2442586263282529","1.0,-0.12042756170577695,-0.8836340589512358",191,285,332,41,"-0.1336957186097738,0.49417000388378884,-0.03453353894846056",191,"0.21850949126575658,0.4532202130288874,-0.9933869065076532",146,211,2.6733140000001185
Pri_ET_Study1_2,M,0/0/1900,2022-06-24_14h18.49.320,31,test,Prioritise1,0,square,cross,circle,triangle,"0.2563330525591274,0.3540064263668754,0.6360281906414551","0.30417514509994215,0.43389432139899475,-1.0","0.8885895249151152,0.10029123080933622,0.593298310174416","1.0,-0.1694459751095364,-0.6968170409133772",254,138,296,34,"0.2563330525591274,0.3540064263668754,0.6360281906414551",254,"0.15891936573799903,0.3831804895186659,0.5999565135488085",247,316,2.0485082999998667
Pri_ET_Study1_2,M,0/0/1900,2022-06-24_14h18.49.320,32,test,Prioritise1,1,circle,triangle,cross,square,"0.5691306813430501,0.3551652128948415,-1.0","-0.14715582087117385,0.4925402828135286,0.025608434090147236","0.6210691465439071,0.22472865664823272,0.6660842894513506","1.0,-0.28704790815198966,-0.09816451385922986",115,195,278,357,"-0.14715582087117385,0.4925402828135286,0.025608434090147236",195,"-0.14097292288545527,0.4934633616179327,-0.004268922352566595",193,349,2.0561589999999796
Pri_ET_Study1_2,M,0/0/1900,2022-06-24_14h18.49.320,33,test,Prioritise2,1,triangle,cross,circle,square,"1.0,-0.015534070910116049,-1.0","1.0,-0.223312447401106,0.14042906010430367","0.4665589352747248,0.2840716923699367,0.6714844115718321","-0.15325530146069954,0.47850880592239364,0.23567289266690317",55,340,268,210,"1.0,-0.223312447401106,0.14042906010430367",340,"1.0,-0.223312447401106,0.14042906010430367",340,135,2.5027549000001272
Pri_ET_Study1_2,M,0/0/1900,2022-06-24_14h18.49.320,34,test,Prioritise2,0,square,circle,triangle,cross,"0.38240568475417525,0.4136729392938614,-1.0","0.9026141269879491,0.09282770385166228,0.5869975937203944","-0.1415152911985038,0.4725588943334964,0.2868282896334675","1.0,-0.27567226916307197,-0.025990342729996674",131,297,214,352,"0.38240568475417525,0.4136729392938614,-1.0",131,"1.0,-0.2810383691272422,-0.05469022987079308",354,60,6.956001600000036
Pri_ET_Study1_2,M,0/0/1900,2022-06-24_14h18.49.320,35,test,Prioritise4,0,square,circle,cross,triangle,"1.0,-0.176090722701999,-0.6762956704638035","0.911575527904773,0.20327130372654878,-1.0","-0.1415152911985038,0.4725588943334964,0.2868282896334675","1.0,-0.2618543528600009,0.0306611530728087",33,86,214,348,"1.0,-0.176090722701999,-0.6762956704638035",33,"0.9788490541088481,0.1646703741338249,-1.0",80,46,5.620855200000051
Pri_ET_Study1_2,M,0/0/1900,2022-06-24_14h18.49.320,36,test,Prioritise2,3,cross,circle,square,triangle,"0.35968141037855483,0.3209804608831912,0.6599831247203418","-0.10587186235375057,0.4950046804635242,-0.12755688133261178","1.0,-0.24425036060701033,0.08619108045783674","1.0,0.12391818455152381,-1.0",261,185,344,74,"1.0,0.12391818455152381,-1.0",74,"-0.12881863109484093,0.46745492896353924,0.32362925960524147",217,292,5.860249199999998
Pri_ET_Study1_2,M,0/0/1900,2022-06-24_14h18.49.320,37,test,Prioritise3,0,cross,triangle,square,circle,"1.0,-0.2117453636986133,0.16700499532847024","0.13253781604398185,0.3908200528647623,0.5874938236427092","0.8885895249151152,0.10029123080933622,0.593298310174416","-0.028015013033697245,0.49094955428922593,-0.32385780920023366",338,245,296,173,"1.0,-0.2117453636986133,0.16700499532847024",338,"0.7127176267031001,0.18557291042394586,0.6506302425082333",284,320,5.56762690000005
Pri_ET_Study1_2,M,0/0/1900,2022-06-24_14h18.49.320,38,test,Prioritise1,3,circle,cross,triangle,square,"-0.04273264564935253,0.4921547641531523,-0.29008164886068233","0.6210691465439071,0.22472865664823272,0.6660842894513506","1.0,-0.1159761024614836,0.3405028198215041","0.5810306884554026,0.3509198779468534,-1.0",175,278,324,114,"0.5810306884554026,0.3509198779468534,-1.0",114,"-0.15218698220497417,0.491399065672369,0.0550849709310266",197,234,8.725151900000128
Pri_ET_Study1_2,M,0/0/1900,2022-06-24_14h18.49.320,39,test,NoPrioritise,3,cross,square,circle,triangle,"0.8771865507724368,0.22170185938115816,-1.0","-0.15745197328482874,0.48927392525561153,0.09851328502402845","0.1456375685133382,0.387038501124352,0.5938426811268567","0.10890282843090082,0.4735368131811257,-0.6233623294930688",89,200,246,157,"0.10890282843090082,0.4735368131811257,-0.6233623294930688",157,"0.28235212283095645,0.4390974279014652,-1.0",140,228,6.82845169999996
Pri_ET_Study1_2,M,0/0/1900,2022-06-24_14h18.49.320,40,test,Prioritise4,0,circle,square,triangle,cross,"-0.08288077159008311,0.49449913405181634,-0.1914000323192474","0.9165223056430671,0.08531838961047389,0.5804719469242157","1.0,-0.030699357614306977,-1.0","-0.03665861455697994,0.4386499069954206,0.4655003413302212",181,298,53,230,"-0.08288077159008311,0.49449913405181634,-0.1914000323192474",181,"0.013319861281873457,0.4245182348375207,0.5115287599103473",235,338,7.85373699999991
Pri_ET_Study1_2,M,0/0/1900,2022-06-24_14h18.49.320,41,test,Prioritise3,3,cross,triangle,square,circle,"-0.15936350859590664,0.487578374203653,0.1269149288768463","1.0,-0.0855518419522695,0.38524161028667625","0.13253781604398185,0.3908200528647623,0.5874938236427092","1.0,-0.28545618498147696,-0.27665271730440133",202,320,245,9,"1.0,-0.28545618498147696,-0.27665271730440133",9,"0.03525654226328623,0.4183671124064994,0.5284836519992187",237,74,9.271984200000134
Pri_ET_Study1_2,M,0/0/1900,2022-06-24_14h18.49.320,42,test,Prioritise3,2,cross,square,triangle,circle,"0.41670369996421397,0.40402696808005323,-1.0","1.0,-0.16655302622891022,0.25673909055504174","-0.1160886962144162,0.49493957268076216,-0.09618366371381681","1.0,-0.09842467873037941,-1.0",128,331,187,44,"-0.1160886962144162,0.49493957268076216,-0.09618366371381681",187,"0.1184165720364383,0.4719787961363635,-0.6454646836219573",156,331,5.802532600000177
Pri_ET_Study1_2,M,0/0/1900,2022-06-24_14h18.49.320,43,test,Prioritise4,1,cross,circle,square,triangle,"1.0,-0.289651960671372,-0.12741280502186536","-0.15857178695416452,0.48845422840718666,0.1127707600476957","0.9342399836420399,0.1906568045828605,-1.0","0.21370971933434912,0.36697709911931464,0.6220261074603506",359,201,84,251,"-0.15857178695416452,0.48845422840718666,0.1127707600476957",201,"-0.15913672951032076,0.48350679120805196,0.18230705521727808",206,234,5.36439919999998
Pri_ET_Study1_2,M,0/0/1900,2022-06-24_14h18.49.320,44,test,Prioritise2,1,cross,square,circle,triangle,"-0.08288077159008311,0.49449913405181634,-0.1914000323192474","1.0,-0.2117453636986133,0.16700499532847024","-0.007535811164553707,0.4303825516742039,0.4937312314227156","1.0,-0.13481497066722903,-0.8172789642511413",181,338,233,39,"1.0,-0.2117453636986133,0.16700499532847024",338,"1.0,-0.27567226916307197,-0.025990342729996674",352,130,2.256456500000013
Pri_ET_Study1_2,M,0/0/1900,2022-06-24_14h18.49.320,45,test,Prioritise4,1,cross,circle,square,triangle,"1.0,-0.03882752461224859,0.44751763152896373","1.0,-0.28545618498147696,-0.27665271730440133","-0.12881863109484093,0.46745492896353924,0.32362925960524147","0.6885060196604067,0.3095143481419429,-1.0",314,9,217,105,"1.0,-0.28545618498147696,-0.27665271730440133",9,"0.7836643519746782,0.2678576623980824,-1.0",97,44,5.737481800000069
Pri_ET_Study1_2,M,0/0/1900,2022-06-24_14h18.49.320,46,test,NoPrioritise,0,square,circle,cross,triangle,"1.0,-0.27567226916307197,-0.025990342729996674","0.6056610145008174,0.2310032177113197,0.6677762187869551","-0.02724900693809007,0.43596400275120595,0.47511170232003863","1.0,0.007155954649565421,-1.0",352,277,231,58,"1.0,-0.27567226916307197,-0.025990342729996674",352,"1.0,-0.25349859092244853,0.058576446168723484",346,188,2.455276700000013
Pri_ET_Study1_2,M,0/0/1900,2022-06-24_14h18.49.320,47,test,Prioritise1,2,cross,square,triangle,circle,"0.7718332302050808,0.2733134055615505,-1.0","1.0,-0.060989074760531836,-1.0","0.06286533759988822,0.4804846395944975,-0.5215000541421746","1.0,-0.2784883645829067,-0.04031082501765193",98,49,162,353,"0.06286533759988822,0.4804846395944975,-0.5215000541421746",162,"1.0,-0.29113614091237483,-0.20140827106110581",4,355,6.253695000000107
Pri_ET_Study1_2,M,0/0/1900,2022-06-24_14h18.49.320,48,test,Prioritise1,3,triangle,circle,cross,square,"0.2563330525591274,0.3540064263668754,0.6360281906414551","1.0,-0.2905679542092485,-0.21635494529981825","-0.15857178695416452,0.48845422840718666,0.1127707600476957","0.5810306884554026,0.3509198779468534,-1.0",254,5,201,114,"0.5810306884554026,0.3509198779468534,-1.0",114,"-0.1336957186097738,0.49417000388378884,-0.03453353894846056",191,270,8.91986380000003
Pri_ET_Study1_2,M,0/0/1900,2022-06-24_14h18.49.320,49,test,Prioritise4,1,circle,square,cross,triangle,"1.0,-0.16655302622891022,0.25673909055504174","0.1184165720364383,0.4719787961363635,-0.6454646836219573","1.0,-0.22467733398512213,-0.5303566464837048","0.27079222332264496,0.349525727356639,0.6402021298134932",331,156,25,255,"0.1184165720364383,0.4719787961363635,-0.6454646836219573",156,"-0.004817967995419115,0.4887422579776717,-0.37551595656205394",170,97,4.338377300000047
Pri_ET_Study1_2,M,0/0/1900,2022-06-24_14h18.49.320,50,test,Prioritise4,1,triangle,square,circle,cross,"0.509921421288337,0.37533864292099284,-1.0","-0.028015013033697245,0.49094955428922593,-0.32385780920023366","1.0,-0.2810383691272422,-0.05469022987079308","0.17237529551869346,0.3792456671279014,0.6058334931269098",120,173,354,248,"-0.028015013033697245,0.49094955428922593,-0.32385780920023366",173,"-0.12085421394465079,0.49482727509491764,-0.08063336981743141",188,197,5.555250999999998
Pri_ET_Study1_2,M,0/0/1900,2022-06-24_14h18.49.320,51,test,NoPrioritise,2,triangle,circle,cross,square,"0.35978173682339754,0.41977397962065344,-1.0","0.8744524420551003,0.1077067653533772,0.5993718879433354","-0.0864279937772866,0.4533299305616785,0.40378459741649797","1.0,-0.25349859092244853,0.058576446168723484",133,295,224,346,"-0.0864279937772866,0.4533299305616785,0.40378459741649797",224,"1.0,-0.07783297952557244,0.3960373748090056",319,284,4.772888799999919
Pri_ET_Study1_2,M,0/0/1900,2022-06-24_14h18.49.320,52,test,Prioritise4,1,square,circle,triangle,cross,"1.0,-0.10086551076024819,0.3631766774585774","1.0,-0.007959551777363516,-1.0","-0.11280811015512238,0.4617870748317987,0.35899735609320693","1.0,-0.2897135245148047,-0.23135156862016248",322,56,220,6,"1.0,-0.007959551777363516,-1.0",56,"1.0,-0.24898244687401672,0.0724226931177736",345,336,8.187068899999986
Pri_ET_Study1_2,M,0/0/1900,2022-06-24_14h18.49.320,53,test,Prioritise1,1,square,triangle,cross,circle,"0.5929450132200651,0.3466038519932022,-1.0","1.0,-0.09842467873037941,-1.0","-0.15218698220497417,0.491399065672369,0.0550849709310266","1.0,0.008268781307839035,0.5033766660072689",113,44,197,308,"1.0,-0.09842467873037941,-1.0",44,"-0.137653653553384,0.47091943313012696,0.2992494234533911",215,318,6.5505097000000205
Pri_ET_Study1_2,M,0/0/1900,2022-06-24_14h18.49.320,54,test,Prioritise1,1,triangle,cross,circle,square,"1.0,-0.29113614091237483,-0.20140827106110581","1.0,-0.007413941176475647,0.4855113905503705","0.2277843781848521,0.3627318956570289,0.6269388339435948","0.4864131283203974,0.38292092452220805,-1.0",4,310,252,122,"1.0,-0.007413941176475647,0.4855113905503705",310,"0.4981526525436166,0.3791643150394166,-1.0",121,255,6.634385100000145
Pri_ET_Study1_2,M,0/0/1900,2022-06-24_14h18.49.320,55,test,NoPrioritise,1,cross,circle,square,triangle,"1.0,-0.18904346603826983,-0.637249894721835","-0.03545149328753128,0.4915787209123279,-0.3069086161051545","1.0,0.1513135807267587,-1.0","0.4511598862406947,0.28958122135142217,0.6706112376461497",31,174,78,267,"-0.03545149328753128,0.4915787209123279,-0.3069086161051545",174,"-0.15325530146069954,0.47850880592239364,0.23567289266690317",210,287,6.588349899999912
Pri_ET_Study1_2,M,0/0/1900,2022-06-24_14h18.49.320,56,test,Prioritise2,2,circle,square,triangle,cross,"-0.15087465470231598,0.47711162872615454,0.24867635980838454","1.0,-0.08353952619481586,-1.0","0.15741439024530024,0.4651753747362595,-0.7441898531558468","1.0,-0.06229796743051119,0.4171389626044979",211,46,152,317,"0.15741439024530024,0.4651753747362595,-0.7441898531558468",152,"-0.14981892062729885,0.491997057231198,0.04039774195876733",196,12,4.355862600000137
Pri_ET_Study1_2,M,0/0/1900,2022-06-24_14h18.49.320,57,test,Prioritise4,3,circle,cross,square,triangle,"0.28536486694739915,0.3449661378960809,0.6441272460635925","0.5453823652594301,0.36344457638027117,-1.0","-0.04985376064386149,0.4926777683571715,-0.2733707743273047","1.0,-0.266139671692747,-0.3844942650329082",256,117,176,16,"1.0,-0.266139671692747,-0.3844942650329082",16,"1.0,-0.2759589912597996,-0.3378595329546661",13,205,3.3500017999999727
Pri_ET_Study1_2,M,0/0/1900,2022-06-24_14h18.49.320,58,test,Prioritise1,0,triangle,square,cross,circle,"1.0,0.13084904670314157,-1.0","-0.15857178695416452,0.48845422840718666,0.1127707600476957","0.3373683384989987,0.425614728337375,-1.0","0.18599750731146814,0.3752337008299145,0.6114718629309206",75,201,135,249,"1.0,0.13084904670314157,-1.0",75,"-0.12384754992127334,0.4656289401720195,0.3355818842165046",218,338,8.365026700000044
Pri_ET_Study1_2,M,0/0/1900,2022-06-24_14h18.49.320,59,test,Prioritise1,0,square,triangle,circle,cross,"1.0,-0.015267259554568757,0.4762913260168815","0.47470490157818523,0.38660875671905104,-1.0","1.0,-0.10580765013847959,-0.9756165541078137","-0.15691856372514257,0.4811251279442219,0.20925454252068332",311,123,43,208,"1.0,-0.015267259554568757,0.4762913260168815",311,"1.0,-0.0932311933171065,0.374286934875081",321,326,3.3212447999999313
Pri_ET_Study1_2,M,0/0/1900,2022-06-24_14h18.49.320,60,test,Prioritise2,0,circle,triangle,cross,square,"0.4282253351913974,0.40067838587068505,-1.0","-0.1598212484830719,0.4866460428277808,0.1409432704458322","1.0,-0.266139671692747,-0.3844942650329082","0.9439739668489959,0.07017173146500566,0.5667550331301558",127,203,16,300,"0.4282253351913974,0.40067838587068505,-1.0",127,"0.18759316868675757,0.45946387343509576,-0.8398972692549822",149,140,4.455150900000035
Pri_ET_Study1_2,M,0/0/1900,2022-06-24_14h18.49.320,61,test,NoPrioritise,3,square,cross,circle,triangle,"0.04661056885000425,0.4151827959781793,0.5366388806382338","0.4864131283203974,0.38292092452220805,-1.0","1.0,-0.1558548551326704,-0.7405909184559469","0.011345098196205106,0.4870029319956142,-0.41073039696963887",238,122,36,168,"0.011345098196205106,0.4870029319956142,-0.41073039696963887",168,"0.07186027412725471,0.47920645949573504,-0.5409731165987569",161,222,6.038001400000212
Pri_ET_Study1_2,M,0/0/1900,2022-06-24_14h18.49.320,62,test,Prioritise1,1,triangle,square,circle,cross,"1.0,-0.21761393967782516,0.1537648375256555","1.0,-0.1558548551326704,-0.7405909184559469","0.8885895249151152,0.10029123080933622,0.593298310174416","-0.10043403746491275,0.49495767021285575,-0.14337977127983403",339,36,296,184,"1.0,-0.1558548551326704,-0.7405909184559469",36,"1.0,-0.28331765203541326,-0.06912673399707303",355,206,3.4383429000001797
Pri_ET_Study1_2,M,0/0/1900,2022-06-24_14h18.49.320,63,test,Prioritise1,3,cross,square,circle,triangle,"0.27079222332264496,0.349525727356639,0.6402021298134932","0.8307090529045498,0.2453327610063578,-1.0","1.0,-0.07604755533137741,-1.0","0.011345098196205106,0.4870029319956142,-0.41073039696963887",255,93,47,168,"0.011345098196205106,0.4870029319956142,-0.41073039696963887",168,"-0.14097292288545527,0.4934633616179327,-0.004268922352566595",193,242,3.6829468999999335
Pri_ET_Study1_2,M,0/0/1900,2022-06-24_14h18.49.320,64,test,NoPrioritise,0,triangle,cross,circle,square,"0.4665589352747248,0.2840716923699367,0.6714844115718321","-0.05680994196765965,0.4931478034098584,-0.2567707460520542","1.0,-0.05449202187079283,0.427438243059558","1.0,0.14454808295369936,-1.0",268,177,316,77,"0.4665589352747248,0.2840716923699367,0.6714844115718321",268,"0.7428418032534498,0.17196979648312705,0.6434837115546581",286,266,3.0169075999999677
Pri_ET_Study1_2,M,0/0/1900,2022-06-24_14h18.49.320,65,test,Prioritise4,2,cross,square,triangle,circle,"0.0809641014742315,0.4778728517952051,-0.560834903418019","0.7726890832158932,0.15810653737494773,0.6353563968956581","1.0,-0.27567226916307197,-0.025990342729996674","1.0,-0.1694459751095364,-0.6968170409133772",160,288,352,34,"1.0,-0.27567226916307197,-0.025990342729996674",352,"1.0,-0.2784883645829067,-0.04031082501765193",353,57,2.1063961999998355
Pri_ET_Study1_2,M,0/0/1900,2022-06-24_14h18.49.320,66,test,Prioritise1,0,circle,cross,triangle,square,"0.45139045294854396,0.393779284417197,-1.0","1.0,-0.23930972970484676,0.09987881270213972","0.9303101871846857,0.07776559495072588,0.5737236459068971","-0.045760705841983884,0.4412666063320212,0.45569155140365925",125,343,299,229,"0.45139045294854396,0.393779284417197,-1.0",125,"0.15741439024530024,0.4651753747362595,-0.7441898531558468",152,218,3.1540055000000393
Pri_ET_Study1_2,M,0/0/1900,2022-06-24_14h18.49.320,67,test,NoPrioritise,2,triangle,circle,cross,square,"1.0,0.13084904670314157,-1.0","0.7578023835242338,0.165070026077772,0.63954193062201","-0.15087465470231598,0.47711162872615454,0.24867635980838454","0.4864131283203974,0.38292092452220805,-1.0",75,287,211,122,"-0.15087465470231598,0.47711162872615454,0.24867635980838454",211,"0.8771865507724368,0.22170185938115816,-1.0",89,262,4.777219399999922
Pri_ET_Study1_2,M,0/0/1900,2022-06-24_14h18.49.320,68,test,NoPrioritise,1,square,cross,triangle,circle,"-0.1598212484830719,0.4866460428277808,0.1409432704458322","0.3373683384989987,0.425614728337375,-1.0","0.5438403016684124,0.25535465854340766,0.6719910833849003","1.0,-0.1801231371030828,0.23165973332613699",203,135,273,333,"0.3373683384989987,0.425614728337375,-1.0",135,"0.38240568475417525,0.4136729392938614,-1.0",131,355,3.305616099999952
Pri_ET_Study1_2,M,0/0/1900,2022-06-24_14h18.49.320,69,test,NoPrioritise,0,square,cross,circle,triangle,"1.0,-0.045861603138592444,-1.0","1.0,-0.0855518419522695,0.38524161028667625","0.6056610145008174,0.2310032177113197,0.6677762187869551","0.07186027412725471,0.47920645949573504,-0.5409731165987569",51,320,277,161,"1.0,-0.045861603138592444,-1.0",51,"-0.1582066093163167,0.48234509352938293,0.19584550247902222",207,306,3.285769999999957
Pri_ET_Study1_2,M,0/0/1900,2022-06-24_14h18.49.320,70,test,Prioritise2,3,square,circle,triangle,cross,"-0.06359610428535867,0.4935649245563736,-0.24027710533734647","1.0,-0.28545618498147696,-0.27665271730440133","0.21370971933434912,0.36697709911931464,0.6220261074603506","0.3373683384989987,0.425614728337375,-1.0",178,9,251,135,"0.3373683384989987,0.425614728337375,-1.0",135,"1.0,-0.12344048141961106,0.3289459564990056",325,233,6.007674499999894
Pri_ET_Study1_2,M,0/0/1900,2022-06-24_14h18.49.320,71,test,Prioritise3,2,circle,square,cross,triangle,"0.557247182986663,0.35934004439537626,-1.0","1.0,0.10990102188412854,-1.0","-0.15913672951032076,0.48350679120805196,0.18230705521727808","0.7726890832158932,0.15810653737494773,0.6353563968956581",116,72,206,288,"-0.15913672951032076,0.48350679120805196,0.18230705521727808",206,"1.0,-0.19319706407583936,0.20612000948251996",335,238,10.988116999999875
Pri_ET_Study1_2,M,0/0/1900,2022-06-24_14h18.49.320,72,test,Prioritise1,3,triangle,square,cross,circle,"1.0,-0.28849207683894174,-0.11276294357485506","0.1377313063497616,0.46869198128419454,-0.6923217342230605","-0.15936350859590664,0.487578374203653,0.1269149288768463","1.0,0.1513135807267587,-1.0",358,154,202,78,"1.0,0.1513135807267587,-1.0",78,"0.09948789533259128,0.47503830359136323,-0.601955130836429",158,14,5.351653199999873
Pri_ET_Study1_2,M,0/0/1900,2022-06-24_14h18.49.320,73,test,Prioritise3,2,circle,triangle,square,cross,"0.21370971933434912,0.36697709911931464,0.6220261074603506","0.1377313063497616,0.46869198128419454,-0.6923217342230605","1.0,-0.030978196634575572,0.4572913763932509","0.8423878648894922,0.2395276862660105,-1.0",251,154,313,92,"1.0,-0.030978196634575572,0.4572913763932509",313,"1.0,0.023895135487088437,0.520455959599228",306,62,2.909469600000193
Pri_ET_Study1_2,M,0/0/1900,2022-06-24_14h18.49.320,74,test,Prioritise1,1,circle,triangle,cross,square,"0.8022226392771252,0.14399413187212562,0.6262603189685363","1.0,-0.06852917744512788,-1.0","0.8072476110492377,0.25673500061136667,-1.0","0.18759316868675757,0.45946387343509576,-0.8398972692549822",290,48,95,149,"1.0,-0.06852917744512788,-1.0",48,"-0.14097292288545527,0.4934633616179327,-0.004268922352566595",193,242,6.451411300000018
Pri_ET_Study1_2,M,0/0/1900,2022-06-24_14h18.49.320,75,test,NoPrioritise,1,cross,triangle,square,circle,"1.0,-0.20752138035248524,-0.5823144238115788","1.0,-0.07783297952557244,0.3960373748090056","0.4204673865307198,0.3003640950728248,0.6680936776579738","0.7123805921607476,0.2995277721370815,-1.0",28,319,265,103,"1.0,-0.07783297952557244,0.3960373748090056",319,"1.0,-0.15960027999342463,0.2690977661520819",330,215,2.3533687999999984
Pri_ET_Study1_2,M,0/0/1900,2022-06-24_14h18.49.320,76,test,Prioritise4,0,square,cross,circle,triangle,"0.9677931896988998,0.1712594071065523,-1.0","-0.12085421394465079,0.49482727509491764,-0.08063336981743141","0.3446475566939091,0.32593623267112437,0.6573177271493604","1.0,-0.223312447401106,0.14042906010430367",81,188,260,340,"0.9677931896988998,0.1712594071065523,-1.0",81,"0.5128942075651803,0.26707393527284795,0.6725600501236935",271,18,3.0586137999998755
Pri_ET_Study1_2,M,0/0/1900,2022-06-24_14h18.49.320,77,test,Prioritise2,2,circle,triangle,square,cross,"-0.020427730643879483,0.49026716567376205,-0.3409363637973366","1.0,-0.007959551777363516,-1.0","0.7726890832158932,0.15810653737494773,0.6353563968956581","0.002753009035763032,0.42748599986642954,0.5027340537090634",172,56,288,234,"0.7726890832158932,0.15810653737494773,0.6353563968956581",288,"-0.020427730643879483,0.49026716567376205,-0.3409363637973366",172,205,4.940224700000044
Pri_ET_Study1_2,M,0/0/1900,2022-06-24_14h18.49.320,78,test,Prioritise4,1,square,triangle,circle,cross,"0.4397882380638529,0.39726260220805054,-1.0","1.0,-0.25349859092244853,0.058576446168723484","0.11962807502985351,0.3945255124543332,0.5809118383777745","1.0,-0.20149881210311282,-0.6002331830476271",126,346,244,29,"1.0,-0.25349859092244853,0.058576446168723484",346,"1.0,-0.1308360377071882,0.3172469791017578",326,266,4.120793099999901
Pri_ET_Study1_2,M,0/0/1900,2022-06-24_14h18.49.320,79,test,Prioritise1,0,circle,cross,triangle,square,"1.0,-0.1308360377071882,0.3172469791017578","0.911575527904773,0.20327130372654878,-1.0","1.0,-0.2541916545294901,-0.43193236346031305","0.011345098196205106,0.4870029319956142,-0.41073039696963887",326,86,19,168,"1.0,-0.1308360377071882,0.3172469791017578",326,"1.0,-0.23416809090988489,0.11348302116348141",342,81,5.354307399999925
Pri_ET_Study1_2,M,0/0/1900,2022-06-24_14h18.49.320,80,test,Prioritise4,3,square,cross,circle,triangle,"-0.07020697204541848,0.49392917223661503,-0.22388609625324785","0.6364477477613335,0.21838082541010184,0.6641383826852352","0.29323185337982705,0.4365272844863326,-1.0","1.0,-0.1694459751095364,-0.6968170409133772",179,279,139,34,"1.0,-0.1694459751095364,-0.6968170409133772",34,"1.0,-0.291416597096681,-0.18651092035548889",3,59,8.735190499999817
Pri_ET_Study1_2,M,0/0/1900,2022-06-24_14h18.49.320,81,test,Prioritise3,2,cross,square,circle,triangle,"0.854028730639278,0.2336538600688729,-1.0","0.013319861281873457,0.4245182348375207,0.5115287599103473","1.0,-0.1801231371030828,0.23165973332613699","1.0,-0.12042756170577695,-0.8836340589512358",91,235,333,41,"1.0,-0.1801231371030828,0.23165973332613699",333,"1.0,-0.15254529173699993,0.2813312795320311",329,212,3.007105700000011
Pri_ET_Study1_2,M,0/0/1900,2022-06-24_14h18.49.320,82,test,NoPrioritise,1,triangle,circle,square,cross,"1.0,-0.19319706407583936,0.20612000948251996","1.0,-0.14190666083918357,-0.7896703829265752","0.06286533759988822,0.4804846395944975,-0.5215000541421746","0.5593128013847881,0.24938009178326226,0.6713213889936891",335,38,162,274,"1.0,-0.14190666083918357,-0.7896703829265752",38,"1.0,-0.1558548551326704,-0.7405909184559469",36,197,2.1309924000001956
Pri_ET_Study1_2,M,0/0/1900,2022-06-24_14h18.49.320,83,test,Prioritise4,0,square,circle,triangle,cross,"1.0,-0.25779156666188097,0.04465505589445962","0.7428418032534498,0.17196979648312705,0.6434837115546581","0.09948789533259128,0.47503830359136323,-0.601955130836429","0.6526534052453359,0.32395804637990677,-1.0",347,286,158,108,"1.0,-0.25779156666188097,0.04465505589445962",347,"1.0,-0.223312447401106,0.14042906010430367",340,89,6.4381711000000905
Pri_ET_Study1_2,M,0/0/1900,2022-06-24_14h18.49.320,84,test,Prioritise3,0,square,triangle,circle,cross,"-0.10032491436032498,0.45768874039972984,0.3817396096664756","0.9439739668489959,0.07017173146500566,0.5667550331301558","0.9566713411825642,0.17778746275501622,-1.0","1.0,-0.18904346603826983,-0.637249894721835",222,300,82,31,"-0.10032491436032498,0.45768874039972984,0.3817396096664756",222,"-0.15218698220497417,0.491399065672369,0.0550849709310266",197,33,3.835435799999914
Pri_ET_Study1_2,M,0/0/1900,2022-06-24_14h18.49.320,85,test,NoPrioritise,3,circle,cross,triangle,square,"-0.14097292288545527,0.4934633616179327,-0.004268922352566595","0.8168605703912253,0.13684827598857496,0.6213530935889016","0.013319861281873457,0.4245182348375207,0.5115287599103473","1.0,-0.27567226916307197,-0.025990342729996674",193,291,235,352,"1.0,-0.27567226916307197,-0.025990342729996674",352,"1.0,0.031678509722878445,0.528693730626498",305,305,4.605295000000069
Pri_ET_Study1_2,M,0/0/1900,2022-06-24_14h18.49.320,86,test,Prioritise1,3,circle,square,cross,triangle,"0.1774490411200258,0.4614263698132157,-0.8044096137074778","-0.0864279937772866,0.4533299305616785,0.40378459741649797","1.0,-0.2133971103908915,-0.5647212078646006","0.8602068900008202,0.11507220116757,0.6052161878467197",150,224,27,294,"0.8602068900008202,0.11507220116757,0.6052161878467197",294,"-0.15971287347422924,0.4846106035432911,0.16864202556096686",205,24,5.45691439999996
Pri_ET_Study1_2,M,0/0/1900,2022-06-24_14h18.49.320,87,test,Prioritise4,3,circle,square,triangle,cross,"1.0,-0.12042756170577695,-0.8836340589512358","1.0,-0.20571451687417974,0.18014638001872707","-0.007535811164553707,0.4303825516742039,0.4937312314227156","0.21850949126575658,0.4532202130288874,-0.9933869065076532",41,337,233,146,"0.21850949126575658,0.4532202130288874,-0.9933869065076532",146,"0.12802681261339854,0.47036395437091305,-0.6683938146358337",155,12,2.5258449000000383
Pri_ET_Study1_2,M,0/0/1900,2022-06-24_14h18.49.320,88,test,Prioritise1,3,triangle,circle,square,cross,"-0.15691856372514257,0.4811251279442219,0.20925454252068332","1.0,-0.023115205136178596,-1.0","1.0,0.016090771115826907,0.5120159997035829","0.3373683384989987,0.425614728337375,-1.0",208,54,307,135,"0.3373683384989987,0.425614728337375,-1.0",135,"-0.028015013033697245,0.49094955428922593,-0.32385780920023366",173,51,5.174559700000145
Pri_ET_Study1_2,M,0/0/1900,2022-06-24_14h18.49.320,89,test,NoPrioritise,3,circle,square,cross,triangle,"-0.14500574250124976,0.47413711311303364,0.2742570559677715","1.0,-0.23416809090988489,0.11348302116348141","-0.028015013033697245,0.49094955428922593,-0.32385780920023366","0.4981526525436166,0.3791643150394166,-1.0",213,342,173,121,"0.4981526525436166,0.3791643150394166,-1.0",121,"-0.04985376064386149,0.4926777683571715,-0.2733707743273047",176,178,4.569047200000114
Pri_ET_Study1_2,M,0/0/1900,2022-06-24_14h18.49.320,90,test,Prioritise1,3,triangle,square,cross,circle,"1.0,-0.0855518419522695,0.38524161028667625","0.15891936573799903,0.3831804895186659,0.5999565135488085","-0.05680994196765965,0.4931478034098584,-0.2567707460520542","1.0,0.01469043779870538,-1.0",320,247,177,59,"1.0,0.01469043779870538,-1.0",59,"-0.045760705841983884,0.4412666063320212,0.45569155140365925",229,343,3.426638699999785
Pri_ET_Study1_2,M,0/0/1900,2022-06-24_14h18.49.320,91,test,Prioritise1,1,triangle,square,circle,cross,"-0.12966480223349675,0.49444262706220066,-0.04980752507879116","0.9229356114863154,0.19699631777014193,-1.0","0.3000437839717358,0.34032750492681907,0.6478023910819077","0.9575099088241161,0.0625393185362546,0.5595685159060846",190,85,257,301,"0.9229356114863154,0.19699631777014193,-1.0",85,"0.9677931896988998,0.1712594071065523,-1.0",81,156,7.6084491000001435
Pri_ET_Study1_2,M,0/0/1900,2022-06-24_14h18.49.320,92,test,NoPrioritise,2,triangle,circle,cross,square,"0.8189948021797893,0.2510686603392729,-1.0","1.0,-0.16269839246793216,-0.7181852224820324","1.0,-0.2784883645829067,-0.04031082501765193","0.7874973343482177,0.15108074255601633,0.6309286527694675",94,35,353,289,"1.0,-0.2784883645829067,-0.04031082501765193",353,"0.6210691465439071,0.22472865664823272,0.6660842894513506",278,289,6.299682800000028
Pri_ET_Study1_2,M,0/0/1900,2022-06-24_14h18.49.320,93,test,Prioritise4,2,cross,circle,triangle,square,"1.0,0.0885108071490186,-1.0","0.05398205218015839,0.48170764156945833,-0.5023703861935837","0.5217173616076898,0.3714436344565344,-1.0","1.0,-0.223312447401106,0.14042906010430367",69,163,119,340,"0.5217173616076898,0.3714436344565344,-1.0",119,"0.9454860823634645,0.18425356693025585,-1.0",83,53,5.137819799999761
Pri_ET_Study1_2,M,0/0/1900,2022-06-24_14h18.49.320,94,test,Prioritise3,3,triangle,circle,cross,square,"-0.13746749759655974,0.49384364036211803,-0.01935357496354817","1.0,-0.28715474606071,-0.26149890951485844","0.8072476110492377,0.25673500061136667,-1.0","0.8458569493622168,0.12238552790175761,0.6108291411981881",192,8,95,293,"0.8458569493622168,0.12238552790175761,0.6108291411981881",293,"-0.07115460775268467,0.4487065849390661,0.42510855757080535",226,214,3.2343934999998964
Pri_ET_Study1_2,M,0/0/1900,2022-06-24_14h18.49.320,95,test,Prioritise3,1,circle,triangle,cross,square,"0.7954699681646173,0.26233143705175754,-1.0","1.0,-0.030699357614306977,-1.0","0.09948789533259128,0.47503830359136323,-0.601955130836429","1.0,-0.223312447401106,0.14042906010430367",96,53,158,340,"1.0,-0.030699357614306977,-1.0",53,"-0.11109230792064029,0.494998675286374,-0.11182488810932678",186,325,6.087923699999919
Pri_ET_Study1_2,M,0/0/1900,2022-06-24_14h18.49.320,96,test,Prioritise2,3,circle,square,cross,triangle,"1.0,0.03716450464441401,-1.0","1.0,-0.24030349193845646,-0.4804258498410512","0.019624625934283157,0.48605247051678724,-0.428609032695351","0.21370971933434912,0.36697709911931464,0.6220261074603506",62,22,167,251,"0.21370971933434912,0.36697709911931464,0.6220261074603506",251,"1.0,-0.24513616553833184,-0.4641238358039159",21,208,5.705209400000058
Pri_ET_Study1_2,M,0/0/1900,2022-06-24_14h18.49.320,97,test,NoPrioritise,2,triangle,square,cross,circle,"0.019624625934283157,0.48605247051678724,-0.428609032695351","1.0,-0.030699357614306977,-1.0","1.0,0.008268781307839035,0.5033766660072689","0.7954699681646173,0.26233143705175754,-1.0",167,53,308,96,"1.0,0.008268781307839035,0.5033766660072689",308,"0.19781922438295352,0.4574422518266765,-0.8818361039644314",148,114,8.537999799999852
Pri_ET_Study1_2,M,0/0/1900,2022-06-24_14h18.49.320,98,test,Prioritise2,3,square,triangle,circle,cross,"1.0,-0.1308360377071882,0.3172469791017578","-0.07663707943429687,0.49424057193593485,-0.2075945922293636","0.5747774279545166,0.24332959852807035,0.670395358395977","1.0,-0.053431764767480794,-1.0",326,180,275,50,"1.0,-0.053431764767480794,-1.0",50,"0.1184165720364383,0.4719787961363635,-0.6454646836219573",156,124,5.78709469999967
Pri_ET_Study1_2,M,0/0/1900,2022-06-24_14h18.49.320,99,test,Prioritise1,1,cross,square,circle,triangle,"-0.10587186235375057,0.4950046804635242,-0.12755688133261178","0.08211922552252782,0.40518924666980105,0.5597871012004456","1.0,-0.2288330890480459,0.12700076968242469","0.6885060196604067,0.3095143481419429,-1.0",185,241,341,105,"0.08211922552252782,0.40518924666980105,0.5597871012004456",241,"-0.11280811015512238,0.4617870748317987,0.35899735609320693",220,164,3.725978899999973
Pri_ET_Study1_2,M,0/0/1900,2022-06-24_14h18.49.320,100,test,Prioritise3,2,circle,square,triangle,cross,"-0.1582066093163167,0.48234509352938293,0.19584550247902222","0.37478692104604905,0.3159453148278393,0.6623940312376342","0.9677931896988998,0.1712594071065523,-1.0","1.0,-0.24513616553833184,-0.4641238358039159",207,262,81,21,"0.9677931896988998,0.1712594071065523,-1.0",81,"0.9001622899209403,0.20948101299508481,-1.0",87,85,1.9186917000001813
Pri_ET_Study1_2,M,0/0/1900,2022-06-24_14h18.49.320,101,test,NoPrioritise,0,triangle,square,cross,circle,"1.0,-0.23416809090988489,0.11348302116348141","1.0,-0.176090722701999,-0.6762956704638035","0.7726890832158932,0.15810653737494773,0.6353563968956581","1.0,0.14454808295369936,-1.0",342,33,288,77,"1.0,-0.23416809090988489,0.11348302116348141",342,"1.0,-0.08353952619481586,-1.0",46,145,6.309983900000134
Pri_ET_Study1_2,M,0/0/1900,2022-06-24_14h18.49.320,102,test,Prioritise3,3,cross,circle,triangle,square,"0.7127176267031001,0.18557291042394586,0.6506302425082333","1.0,-0.2583995670372059,-0.4160170008955538","0.0809641014742315,0.4778728517952051,-0.560834903418019","0.7481042841002781,0.28401253410301863,-1.0",284,18,160,100,"0.7481042841002781,0.28401253410301863,-1.0",100,"-0.12538192785381974,0.49466166942996614,-0.0651744334368548",189,355,6.324962700000015
Pri_ET_Study1_2,M,0/0/1900,2022-06-24_14h18.49.320,103,test,Prioritise4,2,square,cross,circle,triangle,"1.0,-0.2914084206358549,-0.1716625835351976","0.03656203285471027,0.4839890544285097,-0.46499532916065","0.9229356114863154,0.19699631777014193,-1.0","0.8314067698500829,0.129644828397681,0.6162087510840306",2,165,85,292,"0.9229356114863154,0.19699631777014193,-1.0",85,"0.697563521415238,0.19227379976898162,0.6538323072937366",283,311,6.880668599999808
Pri_ET_Study1_2,M,0/0/1900,2022-06-24_14h18.49.320,104,test,Prioritise2,2,square,cross,circle,triangle,"0.03525654226328623,0.4183671124064994,0.5284836519992187","1.0,0.14454808295369936,-1.0","1.0,-0.007413941176475647,0.4855113905503705","0.30417514509994215,0.43389432139899475,-1.0",237,77,310,138,"1.0,-0.007413941176475647,0.4855113905503705",310,"0.5902286499321849,0.2372037618456999,0.6692134526599127",276,19,3.385539400000198
Pri_ET_Study1_2,M,0/0/1900,2022-06-24_14h18.49.320,105,test,Prioritise3,2,circle,cross,square,triangle,"0.6526534052453359,0.32395804637990677,-1.0","1.0,0.07402842417913646,-1.0","-0.01269399205840449,0.48953144240138324,-0.3581525544909092","0.7874973343482177,0.15108074255601633,0.6309286527694675",108,67,171,289,"-0.01269399205840449,0.48953144240138324,-0.3581525544909092",171,"-0.03545149328753128,0.4915787209123279,-0.3069086161051545",174,176,3.3866297999998096
Pri_ET_Study1_2,M,0/0/1900,2022-06-24_14h18.49.320,106,test,Prioritise3,1,cross,square,triangle,circle,"1.0,-0.02312336799965975,0.4668836380243213","1.0,0.1513135807267587,-1.0","1.0,-0.2914084206358549,-0.1716625835351976","-0.06359610428535867,0.4935649245563736,-0.24027710533734647",312,78,2,178,"1.0,0.1513135807267587,-1.0",78,"1.0,-0.2618543528600009,0.0306611530728087",348,345,4.404356000000007
Pri_ET_Study1_2,M,0/0/1900,2022-06-24_14h18.49.320,107,test,Prioritise4,2,cross,circle,square,triangle,"0.07004997715874661,0.40859431628906884,0.5522929170622126","0.5335383805596645,0.36747902832868284,-1.0","1.0,0.06672643376273091,-1.0","0.9439739668489959,0.07017173146500566,0.5667550331301558",240,118,66,300,"1.0,0.06672643376273091,-1.0",66,"0.9898363577373541,0.15802139914365565,-1.0",79,3,2.222020199999861
Pri_ET_Study1_2,M,0/0/1900,2022-06-24_14h18.49.320,108,test,Prioritise1,2,circle,square,triangle,cross,"0.2081252941518954,0.4553611512282272,-0.9356957589344492","1.0,-0.0855518419522695,0.38524161028667625","-0.05454842094763246,0.44381461100324726,0.4456881091586087","0.6056610145008174,0.2310032177113197,0.6677762187869551",147,320,228,277,"-0.05454842094763246,0.44381461100324726,0.4456881091586087",228,"0.49743207809976986,0.2728177294164349,0.672458831583457",270,277,5.892385999999988
Pri_ET_Study1_2,M,0/0/1900,2022-06-24_14h18.49.320,109,test,Prioritise2,1,circle,square,cross,triangle,"0.04661056885000425,0.4151827959781793,0.5366388806382338","1.0,-0.23006636068103248,-0.5135224369802548","0.5453823652594301,0.36344457638027117,-1.0","1.0,0.008268781307839035,0.5033766660072689",238,24,117,308,"1.0,-0.23006636068103248,-0.5135224369802548",24,"1.0,-0.2696580629443429,-0.3688697412252795",15,34,3.4228870000001734
Pri_ET_Study1_2,M,0/0/1900,2022-06-24_14h18.49.320,110,test,NoPrioritise,3,triangle,cross,circle,square,"1.0,-0.291416597096681,-0.18651092035548889","0.2715377535601935,0.44160513045338035,-1.0","0.08211922552252782,0.40518924666980105,0.5597871012004456","1.0,-0.10844910144201803,0.3519141850209708",3,141,241,323,"1.0,-0.10844910144201803,0.3519141850209708",323,"1.0,-0.2885749142137033,-0.24639910949319843",7,321,6.039796600000045
Pri_ET_Study1_2,M,0/0/1900,2022-06-24_14h18.49.320,111,test,Prioritise3,1,cross,triangle,circle,square,"1.0,-0.10580765013847959,-0.9756165541078137","-0.02724900693809007,0.43596400275120595,0.47511170232003863","1.0,-0.25779156666188097,0.04465505589445962","0.21850949126575658,0.4532202130288874,-0.9933869065076532",43,231,347,146,"-0.02724900693809007,0.43596400275120595,0.47511170232003863",231,"0.25011230249462657,0.4464347244570299,-1.0",143,315,5.315563600000132
Pri_ET_Study1_2,M,0/0/1900,2022-06-24_14h18.49.320,112,test,Prioritise4,2,triangle,square,cross,circle,"1.0,0.03716450464441401,-1.0","1.0,-0.17339639938985352,0.2442586263282529","1.0,-0.266139671692747,-0.3844942650329082","-0.15218698220497417,0.491399065672369,0.0550849709310266",62,332,16,197,"1.0,-0.266139671692747,-0.3844942650329082",16,"-0.14981892062729885,0.491997057231198,0.04039774195876733",196,143,6.472490600000128
Pri_ET_Study1_2,M,0/0/1900,2022-06-24_14h18.49.320,113,test,Prioritise4,2,square,circle,cross,triangle,"-0.137653653553384,0.47091943313012696,0.2992494234533911","1.0,-0.1159761024614836,0.3405028198215041","0.2715377535601935,0.44160513045338035,-1.0","0.37478692104604905,0.3159453148278393,0.6623940312376342",215,324,141,262,"0.2715377535601935,0.44160513045338035,-1.0",141,"0.3446475566939091,0.32593623267112437,0.6573177271493604",260,7,2.2888530000000173
Pri_ET_Study1_2,M,0/0/1900,2022-06-24_14h18.49.320,114,test,Prioritise4,3,circle,triangle,square,cross,"1.0,-0.266139671692747,-0.3844942650329082","0.2563330525591274,0.3540064263668754,0.6360281906414551","0.5929450132200651,0.3466038519932022,-1.0","-0.13746749759655974,0.49384364036211803,-0.01935357496354817",16,254,113,192,"-0.13746749759655974,0.49384364036211803,-0.01935357496354817",192,"0.4282253351913974,0.40067838587068505,-1.0",127,149,6.086559599999873
Pri_ET_Study1_2,M,0/0/1900,2022-06-24_14h18.49.320,115,test,Prioritise1,1,circle,triangle,square,cross,"1.0,0.04460337025072447,-1.0","0.3373683384989987,0.425614728337375,-1.0","1.0,-0.19952917352700617,0.19318579588388318","-0.1582066093163167,0.48234509352938293,0.19584550247902222",63,135,336,207,"0.3373683384989987,0.425614728337375,-1.0",135,"1.0,0.06672643376273091,-1.0",66,122,5.580006199999843
Pri_ET_Study1_2,M,0/0/1900,2022-06-24_14h18.49.320,116,test,Prioritise3,1,cross,triangle,circle,square,"0.49743207809976986,0.2728177294164349,0.672458831583457","0.6168077568629242,0.33775906377670717,-1.0","-0.0789607698268403,0.4510515800167316,0.41453817725242015","0.12802681261339854,0.47036395437091305,-0.6683938146358337",270,111,225,155,"0.6168077568629242,0.33775906377670717,-1.0",111,"1.0,-0.12765325079304635,-0.8480385611780058",40,348,6.705908700000236
Pri_ET_Study1_2,M,0/0/1900,2022-06-24_14h18.49.320,117,test,Prioritise2,0,square,circle,cross,triangle,"-0.1442047673080774,0.4930289775224417,0.010718955352132964","1.0,-0.030699357614306977,-1.0","0.18599750731146814,0.3752337008299145,0.6114718629309206","1.0,-0.2905679542092485,-0.21635494529981825",194,53,249,5,"-0.1442047673080774,0.4930289775224417,0.010718955352132964",194,"-0.15691856372514257,0.4811251279442219,0.20925454252068332",208,341,2.3515979000003426
Pri_ET_Study1_2,M,0/0/1900,2022-06-24_14h18.49.320,118,test,NoPrioritise,2,cross,triangle,circle,square,"-0.05454842094763246,0.44381461100324726,0.4456881091586087","0.47470490157818523,0.38660875671905104,-1.0","1.0,-0.18672585607811187,0.21894575397790916","0.03656203285471027,0.4839890544285097,-0.46499532916065",228,123,334,165,"1.0,-0.18672585607811187,0.21894575397790916",334,"0.011345098196205106,0.4870029319956142,-0.41073039696963887",168,57,6.731363100000181
Pri_ET_Study1_2,M,0/0/1900,2022-06-24_14h18.49.320,119,test,Prioritise1,2,cross,square,circle,triangle,"0.697563521415238,0.19227379976898162,0.6538323072937366","-0.11109230792064029,0.494998675286374,-0.11182488810932678","0.5691306813430501,0.3551652128948415,-1.0","1.0,-0.17339639938985352,0.2442586263282529",283,186,115,332,"0.5691306813430501,0.3551652128948415,-1.0",115,"1.0,0.029697581538389972,-1.0",61,189,6.139197400000285
Pri_ET_Study1_2,M,0/0/1900,2022-06-24_14h18.49.320,120,test,NoPrioritise,1,cross,square,circle,triangle,"0.09441071644993415,0.40170970408167506,0.5670564126145141","1.0,-0.053431764767480794,-1.0","-0.13746749759655974,0.49384364036211803,-0.01935357496354817","1.0,-0.15960027999342463,0.2690977661520819",242,50,192,330,"1.0,-0.053431764767480794,-1.0",50,"-0.03665861455697994,0.4386499069954206,0.4655003413302212",230,331,5.587527799999862
Pri_ET_Study1_2,M,0/0/1900,2022-06-24_14h18.49.320,121,test,Prioritise3,1,cross,triangle,square,circle,"0.4397882380638529,0.39726260220805054,-1.0","-0.14715582087117385,0.4925402828135286,0.025608434090147236","0.2277843781848521,0.3627318956570289,0.6269388339435948","1.0,0.01469043779870538,-1.0",126,195,252,59,"-0.14715582087117385,0.4925402828135286,0.025608434090147236",195,"-0.15936350859590664,0.487578374203653,0.1269149288768463",202,254,4.804536899999675
Pri_ET_Study1_2,M,0/0/1900,2022-06-24_14h18.49.320,122,test,Prioritise1,0,triangle,circle,square,cross,"1.0,-0.045861603138592444,-1.0","0.7836643519746782,0.2678576623980824,-1.0","1.0,-0.28715474606071,-0.26149890951485844","0.29323185337982705,0.4365272844863326,-1.0",51,97,8,139,"1.0,-0.045861603138592444,-1.0",51,"1.0,-0.09842467873037941,-1.0",44,257,2.1685803000000305
Pri_ET_Study1_2,M,0/0/1900,2022-06-24_14h18.49.320,123,test,Prioritise3,2,circle,cross,triangle,square,"1.0,-0.02312336799965975,0.4668836380243213","0.5217173616076898,0.3714436344565344,-1.0","-0.1598212484830719,0.4866460428277808,0.1409432704458322","1.0,-0.2885749142137033,-0.24639910949319843",312,119,203,7,"-0.1598212484830719,0.4866460428277808,0.1409432704458322",203,"-0.11850987372908683,0.4637398184337027,0.34737226103556385",219,309,1.854458600000271
Pri_ET_Study1_2,M,0/0/1900,2022-06-24_14h18.49.320,124,test,Prioritise4,0,triangle,cross,square,circle,"0.12802681261339854,0.47036395437091305,-0.6683938146358337","1.0,-0.20149881210311282,-0.6002331830476271","-0.14981892062729885,0.491997057231198,0.04039774195876733","0.7874973343482177,0.15108074255601633,0.6309286527694675",155,29,196,289,"0.12802681261339854,0.47036395437091305,-0.6683938146358337",155,"0.6823545184579658,0.19890605819631269,0.6567852503614975",282,33,3.4851119999998446
Pri_ET_Study1_2,M,0/0/1900,2022-06-24_14h18.49.320,125,test,Prioritise1,2,circle,square,cross,triangle,"0.6885060196604067,0.3095143481419429,-1.0","1.0,-0.2784883645829067,-0.04031082501765193","0.7578023835242338,0.165070026077772,0.63954193062201","-0.12881863109484093,0.46745492896353924,0.32362925960524147",105,353,287,217,"0.7578023835242338,0.165070026077772,0.63954193062201",287,"0.9788490541088481,0.1646703741338249,-1.0",80,201,5.106021399999918
Pri_ET_Study1_2,M,0/0/1900,2022-06-24_14h18.49.320,126,test,Prioritise3,0,triangle,circle,square,cross,"0.8656291340184048,0.2277117481201254,-1.0","0.10691635848548953,0.39815526341168916,0.5740986907036785","-0.1598212484830719,0.4866460428277808,0.1409432704458322","1.0,-0.007413941176475647,0.4855113905503705",90,243,203,310,"0.8656291340184048,0.2277117481201254,-1.0",90,"0.6765582342033039,0.31440040312493167,-1.0",106,78,2.376114900000175
Pri_ET_Study1_2,M,0/0/1900,2022-06-24_14h18.49.320,127,test,Prioritise4,3,cross,triangle,circle,square,"0.6885060196604067,0.3095143481419429,-1.0","0.024156992038590452,0.42147876676365525,0.5201127943356356","0.003196340864616065,0.48789947231709707,-0.3930376390559923","0.6670955436242052,0.20546863097446266,0.6594879335101997",105,236,169,281,"0.6670955436242052,0.20546863097446266,0.6594879335101997",281,"0.5283655398475315,0.26125276704655587,0.6724040666408482",272,223,1.6645607000000382
Pri_ET_Study1_2,M,0/0/1900,2022-06-24_14h18.49.320,128,test,Prioritise2,0,cross,triangle,square,circle,"1.0,-0.053431764767480794,-1.0","1.0,0.023895135487088437,0.520455959599228","-0.05454842094763246,0.44381461100324726,0.4456881091586087","1.0,-0.2897135245148047,-0.23135156862016248",50,306,228,6,"1.0,-0.053431764767480794,-1.0",50,"1.0,-0.12344048141961106,0.3289459564990056",325,78,5.218460500000219
Pri_ET_Study1_2,M,0/0/1900,2022-06-24_14h18.49.320,129,test,NoPrioritise,3,cross,square,triangle,circle,"0.7726890832158932,0.15810653737494773,0.6353563968956581","1.0,-0.2853220527670477,-0.0836186653125478","1.0,-0.03828278687151976,-1.0","-0.09478536258948067,0.49485771099788134,-0.15929400236046964",288,356,52,183,"-0.09478536258948067,0.49485771099788134,-0.15929400236046964",183,"1.0,-0.16269839246793216,-0.7181852224820324",35,161,6.003741700000319
Pri_ET_Study1_2,M,0/0/1900,2022-06-24_14h18.49.320,130,test,Prioritise4,3,circle,triangle,cross,square,"-0.05454842094763246,0.44381461100324726,0.4456881091586087","0.9898363577373541,0.15802139914365565,-1.0","0.15741439024530024,0.4651753747362595,-0.7441898531558468","0.697563521415238,0.19227379976898162,0.6538323072937366",228,79,152,283,"0.697563521415238,0.19227379976898162,0.6538323072937366",283,"0.6056610145008174,0.2310032177113197,0.6677762187869551",277,122,2.0588056999999935
Pri_ET_Study1_2,M,0/0/1900,2022-06-24_14h18.49.320,131,test,Prioritise4,3,circle,cross,triangle,square,"1.0,-0.27567226916307197,-0.025990342729996674","0.6056610145008174,0.2310032177113197,0.6677762187869551","0.5453823652594301,0.36344457638027117,-1.0","1.0,-0.015534070910116049,-1.0",352,277,117,55,"1.0,-0.015534070910116049,-1.0",55,"1.0,-0.08353952619481586,-1.0",46,302,1.78526039999997
Pri_ET_Study1_2,M,0/0/1900,2022-06-24_14h18.49.320,132,test,Prioritise2,0,circle,triangle,square,cross,"1.0,-0.03882752461224859,0.44751763152896373","-0.12881863109484093,0.46745492896353924,0.32362925960524147","0.6885060196604067,0.3095143481419429,-1.0","0.35968141037855483,0.3209804608831912,0.6599831247203418",314,217,105,261,"1.0,-0.03882752461224859,0.44751763152896373",314,"0.3262451978832188,0.42843842117143094,-1.0",136,51,5.9204571000000215
Pri_ET_Study1_2,M,0/0/1900,2022-06-24_14h18.49.320,133,test,Prioritise1,3,square,cross,circle,triangle,"1.0,-0.2618543528600009,0.0306611530728087","0.08211922552252782,0.40518924666980105,0.5597871012004456","0.019624625934283157,0.48605247051678724,-0.428609032695351","0.9303101871846857,0.07776559495072588,0.5737236459068971",348,241,167,299,"0.9303101871846857,0.07776559495072588,0.5737236459068971",299,"1.0,-0.10086551076024819,0.3631766774585774",322,173,4.200289400000202
Pri_ET_Study1_2,M,0/0/1900,2022-06-24_14h18.49.320,134,test,Prioritise1,3,triangle,square,cross,circle,"1.0,-0.20571451687417974,0.18014638001872707","0.04661056885000425,0.4151827959781793,0.5366388806382338","-0.12085421394465079,0.49482727509491764,-0.08063336981743141","0.854028730639278,0.2336538600688729,-1.0",337,238,188,91,"0.854028730639278,0.2336538600688729,-1.0",91,"0.8189948021797893,0.2510686603392729,-1.0",94,25,5.416059700000005
Pri_ET_Study1_2,M,0/0/1900,2022-06-24_14h18.49.320,135,test,Prioritise3,0,circle,triangle,square,cross,"0.9229356114863154,0.19699631777014193,-1.0","-0.15691856372514257,0.4811251279442219,0.20925454252068332","1.0,-0.2618543528600009,0.0306611530728087","0.7127176267031001,0.18557291042394586,0.6506302425082333",85,208,348,284,"0.9229356114863154,0.19699631777014193,-1.0",85,"0.47470490157818523,0.38660875671905104,-1.0",123,0,3.9847899000001235
Pri_ET_Study1_2,M,0/0/1900,2022-06-24_14h18.49.320,136,test,Prioritise3,0,square,circle,triangle,cross,"0.854028730639278,0.2336538600688729,-1.0","0.23950483221035568,0.4487573681220651,-1.0","1.0,-0.22467733398512213,-0.5303566464837048","0.8458569493622168,0.12238552790175761,0.6108291411981881",91,144,25,293,"0.854028730639278,0.2336538600688729,-1.0",91,"1.0,0.04460337025072447,-1.0",63,351,4.761231299999963
Pri_ET_Study1_2,M,0/0/1900,2022-06-24_14h18.49.320,137,test,Prioritise2,2,cross,circle,triangle,square,"0.9001622899209403,0.20948101299508481,-1.0","0.2419946445565604,0.35840841428502257,0.6316066564714324","0.9165223056430671,0.08531838961047389,0.5804719469242157","1.0,-0.2618543528600009,0.0306611530728087",87,253,298,348,"0.9165223056430671,0.08531838961047389,0.5804719469242157",298,"1.0,0.00043266500642058503,0.4945408245860483",309,92,4.389426100000037
Pri_ET_Study1_2,M,0/0/1900,2022-06-24_14h18.49.320,138,test,Prioritise1,2,triangle,square,circle,cross,"-0.15857178695416452,0.48845422840718666,0.1127707600476957","1.0,-0.26238457869240295,-0.4002073564444957","0.9898363577373541,0.15802139914365565,-1.0","0.43579397082986615,0.29501209376045523,0.6694809165992386",201,17,79,266,"0.9898363577373541,0.15802139914365565,-1.0",79,"-0.004817967995419115,0.4887422579776717,-0.37551595656205394",170,196,4.982321100000263
Pri_ET_Study1_2,M,0/0/1900,2022-06-24_14h18.49.320,139,test,Prioritise1,3,triangle,cross,square,circle,"0.8314067698500829,0.129644828397681,0.6162087510840306","1.0,-0.27567226916307197,-0.025990342729996674","0.35978173682339754,0.41977397962065344,-1.0","-0.12881863109484093,0.46745492896353924,0.32362925960524147",292,352,133,217,"-0.12881863109484093,0.46745492896353924,0.32362925960524147",217,"1.0,-0.2905679542092485,-0.21635494529981825",5,242,5.963658300000134
Pri_ET_Study1_2,M,0/0/1900,2022-06-24_14h18.49.320,140,test,Prioritise2,1,cross,circle,triangle,square,"1.0,-0.12765325079304635,-0.8480385611780058","0.09017416231209929,0.4764835565228893,-0.581140049938324","-0.1334211421392112,0.46921826779504494,0.31151742599586085","1.0,-0.24425036060701033,0.08619108045783674",40,159,216,344,"0.09017416231209929,0.4764835565228893,-0.581140049938324",159,"0.07186027412725471,0.47920645949573504,-0.5409731165987569",161,326,1.7155739999998332
Pri_ET_Study1_2,M,0/0/1900,2022-06-24_14h18.49.320,141,test,Prioritise1,1,circle,cross,square,triangle,"0.45139045294854396,0.393779284417197,-1.0","1.0,-0.1558548551326704,-0.7405909184559469","-0.14500574250124976,0.47413711311303364,0.2742570559677715","0.5593128013847881,0.24938009178326226,0.6713213889936891",125,36,213,274,"1.0,-0.1558548551326704,-0.7405909184559469",36,"1.0,-0.18904346603826983,-0.637249894721835",31,278,2.7363045000001875
Pri_ET_Study1_2,M,0/0/1900,2022-06-24_14h18.49.320,142,test,Prioritise2,2,cross,triangle,circle,square,"-0.15425303278284086,0.49074605836511664,0.06966808771232391","1.0,-0.23416809090988489,0.11348302116348141","0.8423878648894922,0.2395276862660105,-1.0","1.0,-0.19533700364355222,-0.6185256211936343",198,342,92,30,"0.8423878648894922,0.2395276862660105,-1.0",92,"0.29323185337982705,0.4365272844863326,-1.0",139,12,4.95843799999966
Pri_ET_Study1_2,M,0/0/1900,2022-06-24_14h18.49.320,143,test,Prioritise3,1,cross,circle,square,triangle,"0.40522526965537775,0.4073086888830977,-1.0","1.0,-0.20752138035248524,-0.5823144238115788","0.09441071644993415,0.40170970408167506,0.5670564126145141","0.9973143857544444,0.03943765994348003,0.5367265506444097",129,28,242,304,"1.0,-0.20752138035248524,-0.5823144238115788",28,"0.9454860823634645,0.18425356693025585,-1.0",83,301,5.253398500000003
Pri_ET_Study1_2,M,0/0/1900,2022-06-24_14h18.49.320,144,test,Prioritise3,3,triangle,cross,square,circle,"1.0,-0.25779156666188097,0.04465505589445962","1.0,-0.176090722701999,-0.6762956704638035","0.019624625934283157,0.48605247051678724,-0.428609032695351","1.0,0.13084904670314157,-1.0",347,33,167,75,"1.0,0.13084904670314157,-1.0",75,"0.6885060196604067,0.3095143481419429,-1.0",105,59,5.6732984000000215
Pri_ET_Study1_2,M,0/0/1900,2022-06-24_14h18.49.320,145,test,Prioritise1,1,cross,circle,triangle,square,"0.9001622899209403,0.20948101299508481,-1.0","0.7874973343482177,0.15108074255601633,0.6309286527694675","1.0,-0.28849207683894174,-0.11276294357485506","-0.15691856372514257,0.4811251279442219,0.20925454252068332",87,289,358,208,"0.7874973343482177,0.15108074255601633,0.6309286527694675",289,"0.7123805921607476,0.2995277721370815,-1.0",103,262,5.019125300000269
Pri_ET_Study1_2,M,0/0/1900,2022-06-24_14h18.49.320,146,test,Prioritise3,3,circle,square,triangle,cross,"-0.12085421394465079,0.49482727509491764,-0.08063336981743141","0.7481042841002781,0.28401253410301863,-1.0","1.0,-0.1308360377071882,0.3172469791017578","0.3148218664135791,0.3356097028178475,0.6512264970146455",188,100,326,258,"0.3148218664135791,0.3356097028178475,0.6512264970146455",258,"1.0,0.023895135487088437,0.520455959599228",306,208,6.765614800000094
Pri_ET_Study1_2,M,0/0/1900,2022-06-24_14h18.49.320,147,test,Prioritise4,3,square,cross,triangle,circle,"-0.14981892062729885,0.491997057231198,0.04039774195876733","1.0,-0.19952917352700617,0.19318579588388318","0.8168605703912253,0.13684827598857496,0.6213530935889016","0.6885060196604067,0.3095143481419429,-1.0",196,336,291,105,"0.6885060196604067,0.3095143481419429,-1.0",105,"0.6885060196604067,0.3095143481419429,-1.0",105,350,4.057244300000093
Pri_ET_Study1_2,M,0/0/1900,2022-06-24_14h18.49.320,148,test,Prioritise2,0,cross,triangle,square,circle,"1.0,-0.03828278687151976,-1.0","1.0,-0.1453950522675579,0.29343624696038684","-0.10032491436032498,0.45768874039972984,0.3817396096664756","0.4819850074232215,0.2784837623913883,0.6721002952002628",52,328,222,269,"1.0,-0.03828278687151976,-1.0",52,"1.0,-0.28331765203541326,-0.06912673399707303",355,130,4.5026639999996405
Pri_ET_Study1_2,M,0/0/1900,2022-06-24_14h18.49.320,149,test,Prioritise1,2,cross,triangle,circle,square,"0.30417514509994215,0.43389432139899475,-1.0","1.0,-0.2812391217555803,-0.30713162009795525","-0.15325530146069954,0.47850880592239364,0.23567289266690317","0.911575527904773,0.20327130372654878,-1.0",138,11,210,86,"-0.15325530146069954,0.47850880592239364,0.23567289266690317",210,"0.25011230249462657,0.4464347244570299,-1.0",143,238,4.319792899999811
Pri_ET_Study1_2,M,0/0/1900,2022-06-24_14h18.49.320,150,test,Prioritise1,2,cross,circle,square,triangle,"-0.137653653553384,0.47091943313012696,0.2992494234533911","1.0,-0.24513616553833184,-0.4641238358039159","1.0,-0.19952917352700617,0.19318579588388318","0.22896995211020998,0.45101907426419996,-1.0",215,21,336,145,"1.0,-0.19952917352700617,0.19318579588388318",336,"-0.12881863109484093,0.46745492896353924,0.32362925960524147",217,70,4.785311200000251
Pri_ET_Study1_2,M,0/0/1900,2022-06-24_14h18.49.320,151,test,NoPrioritise,3,cross,square,triangle,circle,"1.0,-0.265680167273015,0.01659727634298691","-0.1582066093163167,0.48234509352938293,0.19584550247902222","0.47470490157818523,0.38660875671905104,-1.0","1.0,-0.20149881210311282,-0.6002331830476271",349,207,123,29,"1.0,-0.20149881210311282,-0.6002331830476271",29,"0.05398205218015839,0.48170764156945833,-0.5023703861935837",163,226,2.3068590000002587
Pri_ET_Study1_2,M,0/0/1900,2022-06-24_14h18.49.320,152,test,Prioritise4,0,square,circle,cross,triangle,"1.0,-0.2905679542092485,-0.21635494529981825","-0.15857178695416452,0.48845422840718666,0.1127707600476957","1.0,0.14454808295369936,-1.0","0.8314067698500829,0.129644828397681,0.6162087510840306",5,201,77,292,"1.0,-0.2905679542092485,-0.21635494529981825",5,"1.0,0.031678509722878445,0.528693730626498",305,121,6.265279300000202
Pri_ET_Study1_2,M,0/0/1900,2022-06-24_14h18.49.320,153,test,Prioritise2,0,circle,square,cross,triangle,"-0.10032491436032498,0.45768874039972984,0.3817396096664756","0.43579397082986615,0.29501209376045523,0.6694809165992386","0.1673887875274096,0.46333008938060627,-0.7729226224565875","1.0,-0.18672585607811187,0.21894575397790916",222,266,151,334,"-0.10032491436032498,0.45768874039972984,0.3817396096664756",222,"1.0,-0.24030349193845646,-0.4804258498410512",22,162,4.228856799999903
Pri_ET_Study1_2,M,0/0/1900,2022-06-24_14h18.49.320,154,test,Prioritise3,0,triangle,square,cross,circle,"1.0,-0.25779156666188097,0.04465505589445962","-0.06359610428535867,0.4935649245563736,-0.24027710533734647","0.4397882380638529,0.39726260220805054,-1.0","1.0,-0.1558548551326704,-0.7405909184559469",347,178,126,36,"1.0,-0.25779156666188097,0.04465505589445962",347,"0.9001622899209403,0.20948101299508481,-1.0",87,72,5.4354622000000745
Pri_ET_Study1_2,M,0/0/1900,2022-06-24_14h18.49.320,155,test,NoPrioritise,3,triangle,cross,square,circle,"0.8602068900008202,0.11507220116757,0.6052161878467197","-0.04985376064386149,0.4926777683571715,-0.2733707743273047","0.8886984490493344,0.21562474761751438,-1.0","-0.12384754992127334,0.4656289401720195,0.3355818842165046",294,176,88,218,"-0.12384754992127334,0.4656289401720195,0.3355818842165046",218,"-0.10587186235375057,0.4950046804635242,-0.12755688133261178",185,149,5.242071399999986
Pri_ET_Study1_2,M,0/0/1900,2022-06-24_14h18.49.320,156,test,Prioritise3,2,square,triangle,circle,cross,"-0.1442047673080774,0.4930289775224417,0.010718955352132964","0.7278119810668549,0.17880451220180715,0.6471802765379799","0.557247182986663,0.35934004439537626,-1.0","1.0,0.029697581538389972,-1.0",194,285,116,61,"0.557247182986663,0.35934004439537626,-1.0",116,"-0.004817967995419115,0.4887422579776717,-0.37551595656205394",170,277,4.650849699999981
Pri_ET_Study1_2,M,0/0/1900,2022-06-24_14h18.49.320,157,test,Prioritise3,1,square,cross,triangle,circle,"0.06286533759988822,0.4804846395944975,-0.5215000541421746","1.0,-0.23930972970484676,0.09987881270213972","1.0,-0.030699357614306977,-1.0","0.3446475566939091,0.32593623267112437,0.6573177271493604",162,343,53,260,"1.0,-0.23930972970484676,0.09987881270213972",343,"-0.12881863109484093,0.46745492896353924,0.32362925960524147",217,215,3.304015900000195
Pri_ET_Study1_2,M,0/0/1900,2022-06-24_14h18.49.320,158,test,Prioritise2,2,triangle,cross,square,circle,"-0.15857178695416452,0.48845422840718666,0.1127707600476957","0.18599750731146814,0.3752337008299145,0.6114718629309206","0.8307090529045498,0.2453327610063578,-1.0","0.18759316868675757,0.45946387343509576,-0.8398972692549822",201,249,93,149,"0.8307090529045498,0.2453327610063578,-1.0",93,"-0.05454842094763246,0.44381461100324726,0.4456881091586087",228,140,5.554052500000125
Pri_ET_Study1_2,M,0/0/1900,2022-06-24_14h18.49.320,159,test,NoPrioritise,1,circle,cross,triangle,square,"-0.12881863109484093,0.46745492896353924,0.32362925960524147","0.38995744222104256,0.31083082350540914,0.6645497918058341","1.0,-0.2133971103908915,-0.5647212078646006","0.8771865507724368,0.22170185938115816,-1.0",217,263,27,89,"0.38995744222104256,0.31083082350540914,0.6645497918058341",263,"0.911575527904773,0.20327130372654878,-1.0",86,13,2.0649422000001323
Pri_ET_Study1_2,M,0/0/1900,2022-06-24_14h18.49.320,160,test,Prioritise2,0,square,triangle,circle,cross,"-0.10674528321075638,0.4597702151299572,0.3704541436797111","1.0,-0.0855518419522695,0.38524161028667625","0.38995744222104256,0.31083082350540914,0.6645497918058341","0.509921421288337,0.37533864292099284,-1.0",221,320,263,120,"-0.10674528321075638,0.4597702151299572,0.3704541436797111",221,"-0.05454842094763246,0.44381461100324726,0.4456881091586087",228,166,4.066354500000216
Pri_ET_Study1_2,M,0/0/1900,2022-06-24_14h18.49.320,161,test,Prioritise3,3,triangle,circle,cross,square,"0.4981526525436166,0.3791643150394166,-1.0","1.0,-0.1694459751095364,-0.6968170409133772","1.0,-0.23416809090988489,0.11348302116348141","0.5438403016684124,0.25535465854340766,0.6719910833849003",121,34,342,273,"0.5438403016684124,0.25535465854340766,0.6719910833849003",273,"0.5593128013847881,0.24938009178326226,0.6713213889936891",274,74,4.158020899999883
Pri_ET_Study1_2,M,0/0/1900,2022-06-24_14h18.49.320,162,test,Prioritise2,3,square,triangle,circle,cross,"0.06286533759988822,0.4804846395944975,-0.5215000541421746","0.9566713411825642,0.17778746275501622,-1.0","1.0,-0.06229796743051119,0.4171389626044979","0.5593128013847881,0.24938009178326226,0.6713213889936891",162,82,317,274,"0.5593128013847881,0.24938009178326226,0.6713213889936891",274,"-0.1336957186097738,0.49417000388378884,-0.03453353894846056",191,89,5.3179541000004065
Pri_ET_Study1_2,M,0/0/1900,2022-06-24_14h18.49.320,163,test,NoPrioritise,2,cross,circle,triangle,square,"0.11962807502985351,0.3945255124543332,0.5809118383777745","0.2081252941518954,0.4553611512282272,-0.9356957589344492","1.0,0.01469043779870538,-1.0","1.0,-0.1453950522675579,0.29343624696038684",244,147,59,328,"1.0,0.01469043779870538,-1.0",59,"1.0,-0.2905679542092485,-0.21635494529981825",5,243,2.520982500000173
Pri_ET_Study1_2,M,0/0/1900,2022-06-24_14h18.49.320,164,test,NoPrioritise,0,circle,triangle,square,cross,"0.557247182986663,0.35934004439537626,-1.0","0.024156992038590452,0.42147876676365525,0.5201127943356356","0.984183681480933,0.0471694796759472,0.544551712303033","1.0,-0.2885749142137033,-0.24639910949319843",116,236,303,7,"0.557247182986663,0.35934004439537626,-1.0",116,"1.0,-0.23930972970484676,0.09987881270213972",343,219,4.286530999999741
Pri_ET_Study1_2,M,0/0/1900,2022-06-24_14h18.49.320,165,test,Prioritise1,0,cross,square,triangle,circle,"-0.05680994196765965,0.4931478034098584,-0.2567707460520542","1.0,-0.2853220527670477,-0.0836186653125478","0.1997782184249719,0.37114427631595914,0.6168699381761522","1.0,0.03716450464441401,-1.0",177,356,250,62,"-0.05680994196765965,0.4931478034098584,-0.2567707460520542",177,"-0.05680994196765965,0.4931478034098584,-0.2567707460520542",177,245,1.873404599999958
Pri_ET_Study1_2,M,0/0/1900,2022-06-24_14h18.49.320,166,test,Prioritise1,0,cross,square,triangle,circle,"-0.1582066093163167,0.48234509352938293,0.19584550247902222","1.0,-0.060989074760531836,-1.0","0.8744524420551003,0.1077067653533772,0.5993718879433354","0.3262451978832188,0.42843842117143094,-1.0",207,49,295,136,"-0.1582066093163167,0.48234509352938293,0.19584550247902222",207,"-0.1442047673080774,0.4930289775224417,0.010718955352132964",194,271,2.518814300000031
Pri_ET_Study1_2,M,0/0/1900,2022-06-24_14h18.49.320,167,test,NoPrioritise,1,square,circle,cross,triangle,"1.0,-0.2133971103908915,-0.5647212078646006","0.29323185337982705,0.4365272844863326,-1.0","-0.15913672951032076,0.48350679120805196,0.18230705521727808","0.9788490541088481,0.1646703741338249,-1.0",27,139,206,80,"0.29323185337982705,0.4365272844863326,-1.0",139,"0.40522526965537775,0.4073086888830977,-1.0",129,167,4.8715524000003825
Pri_ET_Study1_2,M,0/0/1900,2022-06-24_14h18.49.320,168,test,NoPrioritise,2,triangle,cross,circle,square,"1.0,-0.24898244687401672,0.0724226931177736","0.7481042841002781,0.28401253410301863,-1.0","1.0,-0.007959551777363516,-1.0","0.27079222332264496,0.349525727356639,0.6402021298134932",345,100,56,255,"1.0,-0.007959551777363516,-1.0",56,"1.0,0.13084904670314157,-1.0",75,36,1.5449855000001662
Pri_ET_Study1_2,M,0/0/1900,2022-06-24_14h18.49.320,169,test,Prioritise2,1,triangle,cross,square,circle,"-0.15325530146069954,0.47850880592239364,0.23567289266690317","0.5747774279545166,0.24332959852807035,0.670395358395977","0.5217173616076898,0.3714436344565344,-1.0","1.0,-0.13815640460244194,0.305409278040333",210,275,119,327,"0.5747774279545166,0.24332959852807035,0.670395358395977",275,"0.9165223056430671,0.08531838961047389,0.5804719469242157",298,76,3.9556658000001335
Pri_ET_Study1_2,M,0/0/1900,2022-06-24_14h18.49.320,170,test,Prioritise2,0,cross,circle,triangle,square,"0.7278119810668549,0.17880451220180715,0.6471802765379799","0.47470490157818523,0.38660875671905104,-1.0","-0.15913672951032076,0.48350679120805196,0.18230705521727808","1.0,0.1377261376429495,-1.0",285,123,206,76,"0.7278119810668549,0.17880451220180715,0.6471802765379799",285,"1.0,-0.03882752461224859,0.44751763152896373",314,289,1.9783396999996512
Pri_ET_Study1_2,M,0/0/1900,2022-06-24_14h18.49.320,171,test,Prioritise3,3,square,triangle,cross,circle,"0.04661056885000425,0.4151827959781793,0.5366388806382338","1.0,-0.2784883645829067,-0.04031082501765193","0.4282253351913974,0.40067838587068505,-1.0","-0.10587186235375057,0.4950046804635242,-0.12755688133261178",238,353,127,185,"-0.10587186235375057,0.4950046804635242,-0.12755688133261178",185,"-0.1598212484830719,0.4866460428277808,0.1409432704458322",203,259,2.6579547999999704
Pri_ET_Study1_2,M,0/0/1900,2022-06-24_14h18.49.320,172,test,Prioritise2,2,square,cross,triangle,circle,"1.0,-0.24898244687401672,0.0724226931177736","0.03656203285471027,0.4839890544285097,-0.46499532916065","1.0,-0.060989074760531836,-1.0","0.6646065852612066,0.3192149609683923,-1.0",345,165,49,107,"1.0,-0.060989074760531836,-1.0",49,"-0.04985376064386149,0.4926777683571715,-0.2733707743273047",176,316,3.5170161999999436
Pri_ET_Study1_2,M,0/0/1900,2022-06-24_14h18.49.320,173,test,Prioritise2,2,circle,cross,triangle,square,"0.9898363577373541,0.15802139914365565,-1.0","1.0,-0.2117453636986133,0.16700499532847024","-0.12085421394465079,0.49482727509491764,-0.08063336981743141","1.0,-0.21911833444213913,-0.5474132739956148",79,338,188,26,"-0.12085421394465079,0.49482727509491764,-0.08063336981743141",188,"-0.14715582087117385,0.4925402828135286,0.025608434090147236",195,22,1.9870366000000104
Pri_ET_Study1_2,M,0/0/1900,2022-06-24_14h18.49.320,174,test,Prioritise2,3,cross,square,triangle,circle,"1.0,-0.289651960671372,-0.12741280502186536","0.27079222332264496,0.349525727356639,0.6402021298134932","0.5929450132200651,0.3466038519932022,-1.0","1.0,-0.00039510366743955583,-1.0",359,255,113,57,"1.0,-0.00039510366743955583,-1.0",57,"0.37478692104604905,0.3159453148278393,0.6623940312376342",262,311,2.749760300000162
Pri_ET_Study1_2,M,0/0/1900,2022-06-24_14h18.49.320,175,test,Prioritise2,0,circle,triangle,square,cross,"0.29323185337982705,0.4365272844863326,-1.0","1.0,-0.2784883645829067,-0.04031082501765193","0.07004997715874661,0.40859431628906884,0.5522929170622126","-0.07663707943429687,0.49424057193593485,-0.2075945922293636",139,353,240,180,"0.29323185337982705,0.4365272844863326,-1.0",139,"-0.07020697204541848,0.49392917223661503,-0.22388609625324785",179,161,2.635320800000045
Pri_ET_Study1_2,M,0/0/1900,2022-06-24_14h18.49.320,176,test,Prioritise3,1,cross,triangle,circle,square,"1.0,-0.15960027999342463,0.2690977661520819","1.0,-0.00039510366743955583,-1.0","-0.020427730643879483,0.49026716567376205,-0.3409363637973366","0.6056610145008174,0.2310032177113197,0.6677762187869551",330,57,172,277,"1.0,-0.00039510366743955583,-1.0",57,"0.03656203285471027,0.4839890544285097,-0.46499532916065",165,27,2.649696099999801
Pri_ET_Study1_2,M,0/0/1900,2022-06-24_14h18.49.320,177,test,Prioritise2,1,cross,square,triangle,circle,"-0.05454842094763246,0.44381461100324726,0.4456881091586087","-0.04985376064386149,0.4926777683571715,-0.2733707743273047","0.8423878648894922,0.2395276862660105,-1.0","1.0,-0.060989074760531836,-1.0",228,176,92,49,"-0.04985376064386149,0.4926777683571715,-0.2733707743273047",176,"1.0,0.09568719202827336,-1.0",70,245,2.324825400000009
Pri_ET_Study1_2,M,0/0/1900,2022-06-24_14h18.49.320,178,test,Prioritise4,1,circle,cross,triangle,square,"1.0,-0.045861603138592444,-1.0","-0.12966480223349675,0.49444262706220066,-0.04980752507879116","0.1997782184249719,0.37114427631595914,0.6168699381761522","1.0,-0.07007995956776203,0.4066709204115653",51,190,250,318,"-0.12966480223349675,0.49444262706220066,-0.04980752507879116",190,"0.1456375685133382,0.387038501124352,0.5938426811268567",246,44,6.456857900000159
Pri_ET_Study1_2,M,0/0/1900,2022-06-24_14h18.49.320,179,test,Prioritise3,1,square,circle,cross,triangle,"0.37106831880418345,0.41675617985472035,-1.0","0.8886984490493344,0.21562474761751438,-1.0","1.0,-0.19319706407583936,0.20612000948251996","0.7874973343482177,0.15108074255601633,0.6309286527694675",132,88,335,289,"0.8886984490493344,0.21562474761751438,-1.0",88,"0.1456375685133382,0.387038501124352,0.5938426811268567",246,186,3.2822947999998178
Pri_ET_Study1_2,M,0/0/1900,2022-06-24_14h18.49.320,180,test,NoPrioritise,1,triangle,cross,circle,square,"0.5335383805596645,0.36747902832868284,-1.0","-0.028015013033697245,0.49094955428922593,-0.32385780920023366","1.0,-0.19319706407583936,0.20612000948251996","0.15891936573799903,0.3831804895186659,0.5999565135488085",118,173,335,247,"-0.028015013033697245,0.49094955428922593,-0.32385780920023366",173,"0.5128942075651803,0.26707393527284795,0.6725600501236935",271,70,3.101500700000088
Pri_ET_Study1_2,M,0/0/1900,2022-06-24_14h18.49.320,181,test,NoPrioritise,3,triangle,circle,cross,square,"0.17237529551869346,0.3792456671279014,0.6058334931269098","0.9788490541088481,0.1646703741338249,-1.0","1.0,-0.28545618498147696,-0.27665271730440133","0.9439739668489959,0.07017173146500566,0.5667550331301558",248,80,9,300,"0.9439739668489959,0.07017173146500566,0.5667550331301558",300,"0.9303101871846857,0.07776559495072588,0.5737236459068971",299,270,2.066225700000359
Pri_ET_Study1_2,M,0/0/1900,2022-06-24_14h18.49.320,182,test,Prioritise3,0,cross,square,triangle,circle,"1.0,-0.2352776592018201,-0.4968859262116322","0.3000437839717358,0.34032750492681907,0.6478023910819077","0.7004475934634664,0.30455679594870433,-1.0","-0.14097292288545527,0.4934633616179327,-0.004268922352566595",23,257,104,193,"1.0,-0.2352776592018201,-0.4968859262116322",23,"-0.12085421394465079,0.49482727509491764,-0.08063336981743141",188,343,3.1613193000002866
Pri_ET_Study1_2,M,0/0/1900,2022-06-24_14h18.49.320,183,test,Prioritise2,2,square,triangle,cross,circle,"0.0809641014742315,0.4778728517952051,-0.560834903418019","0.6407010103455535,0.32862970770224886,-1.0","1.0,-0.02312336799965975,0.4668836380243213","1.0,-0.29111130123666484,-0.15686324257888173",160,109,312,1,"1.0,-0.02312336799965975,0.4668836380243213",312,"-0.10032491436032498,0.45768874039972984,0.3817396096664756",222,134,4.803211400000237
Pri_ET_Study1_2,M,0/0/1900,2022-06-24_14h18.49.320,184,test,NoPrioritise,2,cross,square,triangle,circle,"1.0,-0.1694459751095364,-0.6968170409133772","-0.10587186235375057,0.4950046804635242,-0.12755688133261178","0.6823545184579658,0.19890605819631269,0.6567852503614975","0.7004475934634664,0.30455679594870433,-1.0",34,185,282,104,"0.6823545184579658,0.19890605819631269,0.6567852503614975",282,"0.6056610145008174,0.2310032177113197,0.6677762187869551",277,153,1.718511000000035
Pri_ET_Study1_2,M,0/0/1900,2022-06-24_14h18.49.320,185,test,Prioritise2,2,circle,square,cross,triangle,"-0.1599394399400429,0.4856569012506431,0.15485318992015062","0.6364477477613335,0.21838082541010184,0.6641383826852352","0.557247182986663,0.35934004439537626,-1.0","1.0,-0.16269839246793216,-0.7181852224820324",204,279,116,35,"0.557247182986663,0.35934004439537626,-1.0",116,"0.4397882380638529,0.39726260220805054,-1.0",126,4,2.384901799999625
Pri_ET_Study1_2,M,0/0/1900,2022-06-24_14h18.49.320,186,test,Prioritise2,3,triangle,circle,cross,square,"0.4511598862406947,0.28958122135142217,0.6706112376461497","1.0,-0.2914084206358549,-0.1716625835351976","1.0,0.03716450464441401,-1.0","-0.11109230792064029,0.494998675286374,-0.11182488810932678",267,2,62,186,"-0.11109230792064029,0.494998675286374,-0.11182488810932678",186,"0.5283655398475315,0.26125276704655587,0.6724040666408482",272,74,2.9829509999999573
Pri_ET_Study1_2,M,0/0/1900,2022-06-24_14h18.49.320,187,test,Prioritise3,2,circle,triangle,cross,square,"0.0809641014742315,0.4778728517952051,-0.560834903418019","-0.15745197328482874,0.48927392525561153,0.09851328502402845","1.0,-0.00039510366743955583,-1.0","0.557247182986663,0.35934004439537626,-1.0",160,200,57,116,"1.0,-0.00039510366743955583,-1.0",57,"1.0,-0.00039510366743955583,-1.0",57,191,1.5501021000000037
Pri_ET_Study1_2,M,0/0/1900,2022-06-24_14h18.49.320,188,test,Prioritise2,1,circle,triangle,square,cross,"-0.1334211421392112,0.46921826779504494,0.31151742599586085","1.0,-0.11314379054822865,-0.9277147292103822","0.9303101871846857,0.07776559495072588,0.5737236459068971","0.14752787305018233,0.4669625621869047,-0.7174796825499677",216,42,299,153,"1.0,-0.11314379054822865,-0.9277147292103822",42,"1.0,-0.06852917744512788,-1.0",48,308,1.9883550999998079
Pri_ET_Study1_2,M,0/0/1900,2022-06-24_14h18.49.320,189,test,Prioritise2,1,cross,circle,triangle,square,"1.0,-0.21911833444213913,-0.5474132739956148","1.0,0.11693500061052231,-1.0","0.8602068900008202,0.11507220116757,0.6052161878467197","-0.14715582087117385,0.4925402828135286,0.025608434090147236",26,73,294,195,"1.0,0.11693500061052231,-1.0",73,"1.0,-0.11314379054822865,-0.9277147292103822",42,221,2.393110699999852
Pri_ET_Study1_2,M,0/0/1900,2022-06-24_14h18.49.320,190,test,Prioritise4,2,cross,triangle,square,circle,"0.06286533759988822,0.4804846395944975,-0.5215000541421746","1.0,-0.16655302622891022,0.25673909055504174","0.9229356114863154,0.19699631777014193,-1.0","0.5593128013847881,0.24938009178326226,0.6713213889936891",162,331,85,274,"0.9229356114863154,0.19699631777014193,-1.0",85,"0.8423878648894922,0.2395276862660105,-1.0",92,323,2.567533099999764
Pri_ET_Study1_2,M,0/0/1900,2022-06-24_14h18.49.320,191,test,NoPrioritise,3,triangle,square,circle,cross,"1.0,-0.15254529173699993,0.2813312795320311","0.1377313063497616,0.46869198128419454,-0.6923217342230605","-0.15857178695416452,0.48845422840718666,0.1127707600476957","1.0,-0.1694459751095364,-0.6968170409133772",329,154,201,34,"1.0,-0.1694459751095364,-0.6968170409133772",34,"1.0,0.03716450464441401,-1.0",62,349,1.7175351000000774
Pri_ET_Study1_2,M,0/0/1900,2022-06-24_14h18.49.320,192,test,NoPrioritise,0,square,triangle,circle,cross,"0.4665589352747248,0.2840716923699367,0.6714844115718321","1.0,0.04460337025072447,-1.0","1.0,-0.28715474606071,-0.26149890951485844","-0.08288077159008311,0.49449913405181634,-0.1914000323192474",268,63,8,181,"0.4665589352747248,0.2840716923699367,0.6714844115718321",268,"-0.15913672951032076,0.48350679120805196,0.18230705521727808",206,284,3.258181599999716
Pri_ET_Study1_2,M,0/0/1900,2022-06-24_14h18.49.320,193,test,Prioritise3,1,circle,triangle,square,cross,"0.4511598862406947,0.28958122135142217,0.6706112376461497","0.4397882380638529,0.39726260220805054,-1.0","-0.15857178695416452,0.48845422840718666,0.1127707600476957","1.0,0.022205290041545256,-1.0",267,126,201,60,"0.4397882380638529,0.39726260220805054,-1.0",126,"-0.15218698220497417,0.491399065672369,0.0550849709310266",197,250,3.43584090000013
Pri_ET_Study1_2,M,0/0/1900,2022-06-24_14h18.49.320,194,test,Prioritise4,2,triangle,circle,square,cross,"0.15891936573799903,0.3831804895186659,0.5999565135488085","1.0,-0.24030349193845646,-0.4804258498410512","1.0,0.031678509722878445,0.528693730626498","0.45139045294854396,0.393779284417197,-1.0",247,22,305,125,"1.0,0.031678509722878445,0.528693730626498",305,"-0.15325530146069954,0.47850880592239364,0.23567289266690317",210,249,4.592774799999916
Pri_ET_Study1_2,M,0/0/1900,2022-06-24_14h18.49.320,195,test,NoPrioritise,0,cross,square,circle,triangle,"-0.020427730643879483,0.49026716567376205,-0.3409363637973366","1.0,-0.09100024043058197,-1.0","0.28536486694739915,0.3449661378960809,0.6441272460635925","1.0,-0.2905679542092485,-0.21635494529981825",172,45,256,5,"-0.020427730643879483,0.49026716567376205,-0.3409363637973366",172,"0.28536486694739915,0.3449661378960809,0.6441272460635925",256,210,3.740751000000273
Pri_ET_Study1_2,M,0/0/1900,2022-06-24_14h18.49.320,196,test,NoPrioritise,2,square,triangle,cross,circle,"1.0,-0.2117453636986133,0.16700499532847024","-0.06359610428535867,0.4935649245563736,-0.24027710533734647","1.0,-0.1694459751095364,-0.6968170409133772","0.5747774279545166,0.24332959852807035,0.670395358395977",338,178,34,275,"1.0,-0.1694459751095364,-0.6968170409133772",34,"0.9973143857544444,0.03943765994348003,0.5367265506444097",304,318,2.034519000000273
Pri_ET_Study1_2,M,0/0/1900,2022-06-24_14h18.49.320,197,test,NoPrioritise,2,square,triangle,circle,cross,"0.697563521415238,0.19227379976898162,0.6538323072937366","0.911575527904773,0.20327130372654878,-1.0","-0.09478536258948067,0.49485771099788134,-0.15929400236046964","1.0,-0.09842467873037941,-1.0",283,86,183,44,"-0.09478536258948067,0.49485771099788134,-0.15929400236046964",183,"0.7004475934634664,0.30455679594870433,-1.0",104,343,3.723840399999972
Pri_ET_Study1_2,M,0/0/1900,2022-06-24_14h18.49.320,198,test,NoPrioritise,1,triangle,cross,square,circle,"1.0,-0.07604755533137741,-1.0","1.0,-0.289651960671372,-0.12741280502186536","0.3262451978832188,0.42843842117143094,-1.0","-0.12881863109484093,0.46745492896353924,0.32362925960524147",47,359,136,217,"1.0,-0.289651960671372,-0.12741280502186536",359,"-0.05680994196765965,0.4931478034098584,-0.2567707460520542",177,326,2.574339599999803
Pri_ET_Study1_2,M,0/0/1900,2022-06-24_14h18.49.320,199,test,Prioritise3,3,circle,triangle,square,cross,"0.8022226392771252,0.14399413187212562,0.6262603189685363","1.0,-0.2759589912597996,-0.3378595329546661","1.0,0.0520116041796701,-1.0","-0.12085421394465079,0.49482727509491764,-0.08063336981743141",290,13,64,188,"-0.12085421394465079,0.49482727509491764,-0.08063336981743141",188,"0.9898363577373541,0.15802139914365565,-1.0",79,64,2.4522375999999895
Pri_ET_Study1_2,M,0/0/1900,2022-06-24_14h18.49.320,200,test,Prioritise1,0,circle,cross,square,triangle,"0.5438403016684124,0.25535465854340766,0.6719910833849003","0.25011230249462657,0.4464347244570299,-1.0","1.0,-0.21911833444213913,-0.5474132739956148","1.0,-0.07783297952557244,0.3960373748090056",273,143,26,319,"0.5438403016684124,0.25535465854340766,0.6719910833849003",273,"0.5593128013847881,0.24938009178326226,0.6713213889936891",274,239,1.7368349000003036
Pri_ET_Study1_2,M,0/0/1900,2022-06-24_14h18.49.320,201,test,Prioritise3,2,circle,triangle,square,cross,"1.0,-0.18262560807777894,-0.6564771422547051","0.5217173616076898,0.3714436344565344,-1.0","0.003196340864616065,0.48789947231709707,-0.3930376390559923","0.3446475566939091,0.32593623267112437,0.6573177271493604",32,119,169,260,"0.003196340864616065,0.48789947231709707,-0.3930376390559923",169,"0.09017416231209929,0.4764835565228893,-0.581140049938324",159,187,1.3548479000000953
Pri_ET_Study1_2,M,0/0/1900,2022-06-24_14h18.49.320,202,test,Prioritise3,3,circle,triangle,cross,square,"-0.1334211421392112,0.46921826779504494,0.31151742599586085","1.0,-0.2618543528600009,0.0306611530728087","1.0,-0.19533700364355222,-0.6185256211936343","-0.04273264564935253,0.4921547641531523,-0.29008164886068233",216,348,30,175,"-0.04273264564935253,0.4921547641531523,-0.29008164886068233",175,"1.0,-0.045861603138592444,-1.0",51,151,1.5217720000000554
Pri_ET_Study1_2,M,0/0/1900,2022-06-24_14h18.49.320,203,test,Prioritise2,1,square,triangle,circle,cross,"1.0,-0.00039510366743955583,-1.0","1.0,-0.24425036060701033,0.08619108045783674","0.6168077568629242,0.33775906377670717,-1.0","0.05398205218015839,0.48170764156945833,-0.5023703861935837",57,344,111,163,"1.0,-0.24425036060701033,0.08619108045783674",344,"1.0,-0.22467733398512213,-0.5303566464837048",25,64,1.9055805000002692
Pri_ET_Study1_2,M,0/0/1900,2022-06-24_14h18.49.320,204,test,Prioritise3,0,cross,square,triangle,circle,"0.8744524420551003,0.1077067653533772,0.5993718879433354","0.2081252941518954,0.4553611512282272,-0.9356957589344492","-0.12538192785381974,0.49466166942996614,-0.0651744334368548","1.0,-0.28704790815198966,-0.09816451385922986",295,147,189,357,"0.8744524420551003,0.1077067653533772,0.5993718879433354",295,"-0.15325530146069954,0.47850880592239364,0.23567289266690317",210,93,2.284470600000077
Pri_ET_Study1_2,M,0/0/1900,2022-06-24_14h18.49.320,205,test,Prioritise1,2,square,cross,triangle,circle,"-0.11850987372908683,0.4637398184337027,0.34737226103556385","-0.004817967995419115,0.4887422579776717,-0.37551595656205394","0.9303101871846857,0.07776559495072588,0.5737236459068971","1.0,-0.11314379054822865,-0.9277147292103822",219,170,299,42,"0.9303101871846857,0.07776559495072588,0.5737236459068971",299,"-0.15936350859590664,0.487578374203653,0.1269149288768463",202,259,1.704575300000215
Pri_ET_Study1_2,M,0/0/1900,2022-06-24_14h18.49.320,206,test,Prioritise2,3,triangle,circle,cross,square,"1.0,-0.15254529173699993,0.2813312795320311","-0.1552691192795369,0.47984650043174004,0.22253130766167373","0.1184165720364383,0.4719787961363635,-0.6454646836219573","0.2419946445565604,0.35840841428502257,0.6316066564714324",329,209,156,253,"0.2419946445565604,0.35840841428502257,0.6316066564714324",253,"-0.0864279937772866,0.4533299305616785,0.40378459741649797",224,11,1.2401247000002513
Pri_ET_Study1_2,M,0/0/1900,2022-06-24_14h18.49.320,207,test,Prioritise2,3,cross,triangle,square,circle,"1.0,-0.23416809090988489,0.11348302116348141","0.09441071644993415,0.40170970408167506,0.5670564126145141","0.7836643519746782,0.2678576623980824,-1.0","0.18759316868675757,0.45946387343509576,-0.8398972692549822",342,242,97,149,"0.18759316868675757,0.45946387343509576,-0.8398972692549822",149,"0.1673887875274096,0.46333008938060627,-0.7729226224565875",151,179,1.6253132000001642
Pri_ET_Study1_2,M,0/0/1900,2022-06-24_14h18.49.320,208,test,Prioritise2,3,circle,triangle,square,cross,"0.019624625934283157,0.48605247051678724,-0.428609032695351","1.0,-0.2897135245148047,-0.23135156862016248","0.08211922552252782,0.40518924666980105,0.5597871012004456","1.0,-0.07783297952557244,0.3960373748090056",167,6,241,319,"1.0,-0.07783297952557244,0.3960373748090056",319,"1.0,-0.291416597096681,-0.18651092035548889",3,357,2.568939499999942
Pri_ET_Study1_2,M,0/0/1900,2022-06-24_14h18.49.320,209,test,Prioritise3,0,cross,triangle,circle,square,"1.0,-0.2787294505909397,-0.3224626175099854","-0.15745197328482874,0.48927392525561153,0.09851328502402845","0.6670955436242052,0.20546863097446266,0.6594879335101997","1.0,-0.16655302622891022,0.25673909055504174",12,200,281,331,"1.0,-0.2787294505909397,-0.3224626175099854",12,"-0.05454842094763246,0.44381461100324726,0.4456881091586087",228,6,2.2257478999999876
Pri_ET_Study1_2,M,0/0/1900,2022-06-24_14h18.49.320,210,test,Prioritise4,1,circle,square,cross,triangle,"-0.1599394399400429,0.4856569012506431,0.15485318992015062","0.7481042841002781,0.28401253410301863,-1.0","1.0,-0.0855518419522695,0.38524161028667625","1.0,-0.2133971103908915,-0.5647212078646006",204,100,320,27,"0.7481042841002781,0.28401253410301863,-1.0",100,"1.0,-0.1694459751095364,-0.6968170409133772",34,38,1.3073825999999826
Pri_ET_Study1_2,M,0/0/1900,2022-06-24_14h18.49.320,211,test,Prioritise1,2,cross,circle,triangle,square,"0.984183681480933,0.0471694796759472,0.544551712303033","-0.11109230792064029,0.494998675286374,-0.11182488810932678","0.2277843781848521,0.3627318956570289,0.6269388339435948","1.0,-0.16269839246793216,-0.7181852224820324",303,186,252,35,"0.2277843781848521,0.3627318956570289,0.6269388339435948",252,"1.0,-0.03882752461224859,0.44751763152896373",314,306,2.5034183999996458
Pri_ET_Study1_2,M,0/0/1900,2022-06-24_14h18.49.320,212,test,NoPrioritise,0,cross,triangle,circle,square,"1.0,-0.03828278687151976,-1.0","0.3148218664135791,0.3356097028178475,0.6512264970146455","1.0,-0.2288330890480459,0.12700076968242469","0.2081252941518954,0.4553611512282272,-0.9356957589344492",52,258,341,147,"1.0,-0.03828278687151976,-1.0",52,"0.5283655398475315,0.26125276704655587,0.6724040666408482",272,83,1.698996999999963
