id,gender,dob,date,n_trial,test_stage,condition,tested_position,shape_0,shape_1,shape_2,shape_3,color_0,color_1,color_2,color_3,color_angle_0,color_angle_1,color_angle_2,color_angle_3,correct_response,correct_response_angle,response,response_angle,wheel_rotation,reaction_time
Pri_ET_Study1_6,M,0/0/1900,2022-07-11_15h09.47.792,1,practice_pri,Prioritise3,3,cross,circle,triangle,square,"1.0,-0.1694459751095364,-0.6968170409133772","-0.06359610428535867,0.4935649245563736,-0.24027710533734647","0.9342399836420399,0.1906568045828605,-1.0","-0.11280811015512238,0.4617870748317987,0.35899735609320693",34,178,84,220,"-0.11280811015512238,0.4617870748317987,0.35899735609320693",220,"0.9439739668489959,0.07017173146500566,0.5667550331301558",300,99,14.86637250000058
Pri_ET_Study1_6,M,0/0/1900,2022-07-11_15h09.47.792,2,practice_pri,Prioritise1,0,triangle,cross,circle,square,"0.6287517000804042,0.333230015934751,-1.0","1.0,-0.10580765013847959,-0.9756165541078137","1.0,-0.03882752461224859,0.44751763152896373","1.0,-0.28849207683894174,-0.11276294357485506",110,43,314,358,"0.6287517000804042,0.333230015934751,-1.0",110,"0.1377313063497616,0.46869198128419454,-0.6923217342230605",154,266,2.517499699999462
Pri_ET_Study1_6,M,0/0/1900,2022-07-11_15h09.47.792,3,practice_pri,Prioritise2,3,triangle,cross,square,circle,"0.8423878648894922,0.2395276862660105,-1.0","0.29323185337982705,0.4365272844863326,-1.0","-0.15425303278284086,0.49074605836511664,0.06966808771232391","0.6823545184579658,0.19890605819631269,0.6567852503614975",92,139,198,282,"0.6823545184579658,0.19890605819631269,0.6567852503614975",282,"1.0,-0.283482916447115,-0.29186272671519153",10,312,2.7731146000005538
Pri_ET_Study1_6,M,0/0/1900,2022-07-11_15h09.47.792,4,practice_pri,Prioritise4,1,circle,triangle,square,cross,"1.0,-0.1159761024614836,0.3405028198215041","0.07004997715874661,0.40859431628906884,0.5522929170622126","0.37106831880418345,0.41675617985472035,-1.0","-0.15218698220497417,0.491399065672369,0.0550849709310266",324,240,132,197,"0.07004997715874661,0.40859431628906884,0.5522929170622126",240,"0.7481042841002781,0.28401253410301863,-1.0",100,305,15.837263999999777
Pri_ET_Study1_6,M,0/0/1900,2022-07-11_15h09.47.792,5,practice_pri,NoPrioritise,1,square,cross,triangle,circle,"-0.137653653553384,0.47091943313012696,0.2992494234533911","0.9001622899209403,0.20948101299508481,-1.0","0.7726890832158932,0.15810653737494773,0.6353563968956581","1.0,-0.2787294505909397,-0.3224626175099854",215,87,288,12,"0.9001622899209403,0.20948101299508481,-1.0",87,"-0.11109230792064029,0.494998675286374,-0.11182488810932678",186,99,2.757688799999414
Pri_ET_Study1_6,M,0/0/1900,2022-07-11_15h09.47.792,1,test,Prioritise2,0,triangle,cross,square,circle,"1.0,-0.23416809090988489,0.11348302116348141","0.5929450132200651,0.3466038519932022,-1.0","0.5747774279545166,0.24332959852807035,0.670395358395977","1.0,0.029697581538389972,-1.0",342,113,275,61,"1.0,-0.23416809090988489,0.11348302116348141",342,"-0.07020697204541848,0.49392917223661503,-0.22388609625324785",179,147,3.434207199999946
Pri_ET_Study1_6,M,0/0/1900,2022-07-11_15h09.47.792,2,test,NoPrioritise,2,circle,triangle,square,cross,"1.0,-0.09842467873037941,-1.0","1.0,-0.1159761024614836,0.3405028198215041","-0.04273264564935253,0.4921547641531523,-0.29008164886068233","-0.09355100115627091,0.45554214766479406,0.3928507547204487",44,324,175,223,"-0.04273264564935253,0.4921547641531523,-0.29008164886068233",175,"-0.01269399205840449,0.48953144240138324,-0.3581525544909092",171,232,1.9768346000000747
Pri_ET_Study1_6,M,0/0/1900,2022-07-11_15h09.47.792,3,test,Prioritise4,1,circle,cross,square,triangle,"0.2081252941518954,0.4553611512282272,-0.9356957589344492","0.9165223056430671,0.08531838961047389,0.5804719469242157","1.0,-0.21761393967782516,0.1537648375256555","0.07004997715874661,0.40859431628906884,0.5522929170622126",147,298,339,240,"0.9165223056430671,0.08531838961047389,0.5804719469242157",298,"0.019624625934283157,0.48605247051678724,-0.428609032695351",167,32,4.504501600000367
Pri_ET_Study1_6,M,0/0/1900,2022-07-11_15h09.47.792,4,test,NoPrioritise,2,square,circle,cross,triangle,"1.0,0.008268781307839035,0.5033766660072689","-0.14981892062729885,0.491997057231198,0.04039774195876733","0.1456375685133382,0.387038501124352,0.5938426811268567","1.0,-0.26238457869240295,-0.4002073564444957",308,196,246,17,"0.1456375685133382,0.387038501124352,0.5938426811268567",246,"0.6885060196604067,0.3095143481419429,-1.0",105,293,6.9243172999995295
Pri_ET_Study1_6,M,0/0/1900,2022-07-11_15h09.47.792,5,test,Prioritise3,1,triangle,circle,square,cross,"0.9229356114863154,0.19699631777014193,-1.0","1.0,-0.29111130123666484,-0.15686324257888173","0.30417514509994215,0.43389432139899475,-1.0","0.6670955436242052,0.20546863097446266,0.6594879335101997",85,1,138,281,"1.0,-0.29111130123666484,-0.15686324257888173",1,"1.0,-0.1308360377071882,0.3172469791017578",326,343,3.8170380000001387
Pri_ET_Study1_6,M,0/0/1900,2022-07-11_15h09.47.792,6,test,Prioritise3,1,square,cross,circle,triangle,"1.0,-0.265680167273015,0.01659727634298691","-0.10674528321075638,0.4597702151299572,0.3704541436797111","0.3485477954945324,0.4227267056127266,-1.0","0.9303101871846857,0.07776559495072588,0.5737236459068971",349,221,134,299,"-0.10674528321075638,0.4597702151299572,0.3704541436797111",221,"0.5453823652594301,0.36344457638027117,-1.0",117,188,4.09967239999969
Pri_ET_Study1_6,M,0/0/1900,2022-07-11_15h09.47.792,7,test,Prioritise1,2,square,triangle,cross,circle,"0.024156992038590452,0.42147876676365525,0.5201127943356356","1.0,-0.2541916545294901,-0.43193236346031305","1.0,0.008268781307839035,0.5033766660072689","-0.01269399205840449,0.48953144240138324,-0.3581525544909092",236,19,308,171,"1.0,0.008268781307839035,0.5033766660072689",308,"1.0,-0.030978196634575572,0.4572913763932509",313,235,2.873867899999823
Pri_ET_Study1_6,M,0/0/1900,2022-07-11_15h09.47.792,8,test,Prioritise2,3,square,triangle,circle,cross,"0.002753009035763032,0.42748599986642954,0.5027340537090634","1.0,-0.28715474606071,-0.26149890951485844","0.23950483221035568,0.4487573681220651,-1.0","-0.14097292288545527,0.4934633616179327,-0.004268922352566595",234,8,144,193,"-0.14097292288545527,0.4934633616179327,-0.004268922352566595",193,"1.0,-0.24425036060701033,0.08619108045783674",344,79,9.707216699999663
Pri_ET_Study1_6,M,0/0/1900,2022-07-11_15h09.47.792,9,test,Prioritise2,1,cross,triangle,circle,square,"-0.05680994196765965,0.4931478034098584,-0.2567707460520542","0.9303101871846857,0.07776559495072588,0.5737236459068971","1.0,-0.2583995670372059,-0.4160170008955538","0.09441071644993415,0.40170970408167506,0.5670564126145141",177,299,18,242,"0.9303101871846857,0.07776559495072588,0.5737236459068971",299,"0.9973143857544444,0.03943765994348003,0.5367265506444097",304,327,1.715279300000475
Pri_ET_Study1_6,M,0/0/1900,2022-07-11_15h09.47.792,10,test,Prioritise1,3,circle,square,cross,triangle,"0.011345098196205106,0.4870029319956142,-0.41073039696963887","1.0,-0.07783297952557244,0.3960373748090056","0.4511598862406947,0.28958122135142217,0.6706112376461497","0.47470490157818523,0.38660875671905104,-1.0",168,319,267,123,"0.47470490157818523,0.38660875671905104,-1.0",123,"0.0809641014742315,0.4778728517952051,-0.560834903418019",160,49,1.8206223999995927
Pri_ET_Study1_6,M,0/0/1900,2022-07-11_15h09.47.792,11,test,NoPrioritise,3,square,circle,triangle,cross,"-0.020427730643879483,0.49026716567376205,-0.3409363637973366","0.7599790593392,0.278698430329378,-1.0","0.2277843781848521,0.3627318956570289,0.6269388339435948","1.0,-0.2583995670372059,-0.4160170008955538",172,99,252,18,"1.0,-0.2583995670372059,-0.4160170008955538",18,"1.0,0.1377261376429495,-1.0",76,50,4.136576900000364
Pri_ET_Study1_6,M,0/0/1900,2022-07-11_15h09.47.792,12,test,Prioritise4,3,square,circle,cross,triangle,"0.19781922438295352,0.4574422518266765,-0.8818361039644314","1.0,-0.24030349193845646,-0.4804258498410512","-0.15691856372514257,0.4811251279442219,0.20925454252068332","1.0,0.11693500061052231,-1.0",148,22,208,73,"1.0,0.11693500061052231,-1.0",73,"1.0,-0.28545618498147696,-0.27665271730440133",9,0,8.316966899999898
Pri_ET_Study1_6,M,0/0/1900,2022-07-11_15h09.47.792,13,test,Prioritise4,3,triangle,square,cross,circle,"-0.08288077159008311,0.49449913405181634,-0.1914000323192474","0.6885060196604067,0.3095143481419429,-1.0","1.0,-0.2133971103908915,-0.5647212078646006","0.6364477477613335,0.21838082541010184,0.6641383826852352",181,105,27,279,"0.6364477477613335,0.21838082541010184,0.6641383826852352",279,"0.7428418032534498,0.17196979648312705,0.6434837115546581",286,111,1.2466588000006595
Pri_ET_Study1_6,M,0/0/1900,2022-07-11_15h09.47.792,14,test,NoPrioritise,3,cross,circle,triangle,square,"0.35968141037855483,0.3209804608831912,0.6599831247203418","0.6765582342033039,0.31440040312493167,-1.0","-0.03545149328753128,0.4915787209123279,-0.3069086161051545","1.0,-0.007959551777363516,-1.0",261,106,174,56,"1.0,-0.007959551777363516,-1.0",56,"1.0,-0.2810383691272422,-0.05469022987079308",354,48,5.533292000000074
Pri_ET_Study1_6,M,0/0/1900,2022-07-11_15h09.47.792,15,test,Prioritise2,2,cross,circle,square,triangle,"1.0,-0.265680167273015,0.01659727634298691","0.2081252941518954,0.4553611512282272,-0.9356957589344492","1.0,-0.20149881210311282,-0.6002331830476271","-0.07115460775268467,0.4487065849390661,0.42510855757080535",349,147,29,226,"1.0,-0.20149881210311282,-0.6002331830476271",29,"1.0,0.01469043779870538,-1.0",59,168,3.1351764000000912
Pri_ET_Study1_6,M,0/0/1900,2022-07-11_15h09.47.792,16,test,Prioritise2,2,cross,square,triangle,circle,"0.2419946445565604,0.35840841428502257,0.6316066564714324","0.8189948021797893,0.2510686603392729,-1.0","1.0,-0.16655302622891022,0.25673909055504174","0.02803139784776887,0.4850479085911541,-0.44669070010662637",253,94,331,166,"1.0,-0.16655302622891022,0.25673909055504174",331,"-0.10674528321075638,0.4597702151299572,0.3704541436797111",221,180,4.905965500000093
Pri_ET_Study1_6,M,0/0/1900,2022-07-11_15h09.47.792,17,test,Prioritise4,3,square,triangle,circle,cross,"0.37478692104604905,0.3159453148278393,0.6623940312376342","1.0,-0.223312447401106,0.14042906010430367","0.6646065852612066,0.3192149609683923,-1.0","0.1774490411200258,0.4614263698132157,-0.8044096137074778",262,340,107,150,"0.1774490411200258,0.4614263698132157,-0.8044096137074778",150,"0.09948789533259128,0.47503830359136323,-0.601955130836429",158,68,1.6380632000000332
Pri_ET_Study1_6,M,0/0/1900,2022-07-11_15h09.47.792,18,test,Prioritise1,3,circle,square,triangle,cross,"0.35968141037855483,0.3209804608831912,0.6599831247203418","1.0,-0.15254529173699993,0.2813312795320311","0.8423878648894922,0.2395276862660105,-1.0","1.0,-0.060989074760531836,-1.0",261,329,92,49,"1.0,-0.060989074760531836,-1.0",49,"1.0,-0.22467733398512213,-0.5303566464837048",25,143,4.8212524999999005
Pri_ET_Study1_6,M,0/0/1900,2022-07-11_15h09.47.792,19,test,Prioritise2,1,triangle,cross,square,circle,"0.7599790593392,0.278698430329378,-1.0","1.0,-0.27259515439613147,-0.011730747350127468","1.0,0.031678509722878445,0.528693730626498","-0.04273264564935253,0.4921547641531523,-0.29008164886068233",99,351,305,175,"1.0,-0.27259515439613147,-0.011730747350127468",351,"1.0,-0.265680167273015,0.01659727634298691",349,210,5.206081799999993
Pri_ET_Study1_6,M,0/0/1900,2022-07-11_15h09.47.792,20,test,Prioritise3,3,cross,triangle,circle,square,"-0.028015013033697245,0.49094955428922593,-0.32385780920023366","1.0,-0.28331765203541326,-0.06912673399707303","0.5453823652594301,0.36344457638027117,-1.0","1.0,-0.14892208927791584,-0.7642951287839744",173,355,117,37,"1.0,-0.14892208927791584,-0.7642951287839744",37,"0.28536486694739915,0.3449661378960809,0.6441272460635925",256,122,4.994181600000047
Pri_ET_Study1_6,M,0/0/1900,2022-07-11_15h09.47.792,21,test,NoPrioritise,0,cross,triangle,circle,square,"1.0,-0.08353952619481586,-1.0","0.2081252941518954,0.4553611512282272,-0.9356957589344492","0.911575527904773,0.20327130372654878,-1.0","0.07004997715874661,0.40859431628906884,0.5522929170622126",46,147,86,240,"1.0,-0.08353952619481586,-1.0",46,"-0.13746749759655974,0.49384364036211803,-0.01935357496354817",192,312,1.872682999999597
Pri_ET_Study1_6,M,0/0/1900,2022-07-11_15h09.47.792,22,test,Prioritise4,2,circle,square,cross,triangle,"1.0,0.08129056571751603,-1.0","1.0,-0.2133971103908915,-0.5647212078646006","0.10890282843090082,0.4735368131811257,-0.6233623294930688","0.15891936573799903,0.3831804895186659,0.5999565135488085",68,27,157,247,"0.10890282843090082,0.4735368131811257,-0.6233623294930688",157,"1.0,0.13084904670314157,-1.0",75,132,3.924196299999494
Pri_ET_Study1_6,M,0/0/1900,2022-07-11_15h09.47.792,23,test,NoPrioritise,0,square,triangle,cross,circle,"1.0,0.03716450464441401,-1.0","-0.15971287347422924,0.4846106035432911,0.16864202556096686","0.09017416231209929,0.4764835565228893,-0.581140049938324","1.0,-0.2541916545294901,-0.43193236346031305",62,205,159,19,"1.0,0.03716450464441401,-1.0",62,"1.0,-0.1453950522675579,0.29343624696038684",328,352,4.241819599999872
Pri_ET_Study1_6,M,0/0/1900,2022-07-11_15h09.47.792,24,test,Prioritise4,2,square,cross,triangle,circle,"1.0,0.0885108071490186,-1.0","-0.15325530146069954,0.47850880592239364,0.23567289266690317","0.5453823652594301,0.36344457638027117,-1.0","1.0,-0.24898244687401672,0.0724226931177736",69,210,117,345,"0.5453823652594301,0.36344457638027117,-1.0",117,"0.7362113369355152,0.2892555466706437,-1.0",101,204,13.385596699999951
Pri_ET_Study1_6,M,0/0/1900,2022-07-11_15h09.47.792,25,test,Prioritise3,2,circle,square,triangle,cross,"-0.12538192785381974,0.49466166942996614,-0.0651744334368548","1.0,-0.16655302622891022,0.25673909055504174","0.9677931896988998,0.1712594071065523,-1.0","0.7578023835242338,0.165070026077772,0.63954193062201",189,331,81,287,"0.9677931896988998,0.1712594071065523,-1.0",81,"0.911575527904773,0.20327130372654878,-1.0",86,1,2.359019999999873
Pri_ET_Study1_6,M,0/0/1900,2022-07-11_15h09.47.792,26,test,Prioritise2,3,triangle,square,cross,circle,"0.4981526525436166,0.3791643150394166,-1.0","-0.028015013033697245,0.49094955428922593,-0.32385780920023366","1.0,-0.2759589912597996,-0.3378595329546661","0.03525654226328623,0.4183671124064994,0.5284836519992187",121,173,13,237,"0.03525654226328623,0.4183671124064994,0.5284836519992187",237,"0.8771865507724368,0.22170185938115816,-1.0",89,270,2.005962499999441
Pri_ET_Study1_6,M,0/0/1900,2022-07-11_15h09.47.792,27,test,Prioritise2,3,circle,cross,square,triangle,"-0.15745197328482874,0.48927392525561153,0.09851328502402845","1.0,0.029697581538389972,-1.0","0.7578023835242338,0.165070026077772,0.63954193062201","0.07004997715874661,0.40859431628906884,0.5522929170622126",200,61,287,240,"0.07004997715874661,0.40859431628906884,0.5522929170622126",240,"0.07004997715874661,0.40859431628906884,0.5522929170622126",240,289,1.635830199999873
Pri_ET_Study1_6,M,0/0/1900,2022-07-11_15h09.47.792,28,test,Prioritise2,2,cross,triangle,circle,square,"0.07004997715874661,0.40859431628906884,0.5522929170622126","0.9439739668489959,0.07017173146500566,0.5667550331301558","-0.03545149328753128,0.4915787209123279,-0.3069086161051545","0.7243026375027783,0.2944273290124073,-1.0",240,300,174,102,"-0.03545149328753128,0.4915787209123279,-0.3069086161051545",174,"1.0,-0.28715474606071,-0.26149890951485844",8,6,3.8910459000007904
Pri_ET_Study1_6,M,0/0/1900,2022-07-11_15h09.47.792,29,test,Prioritise1,2,square,cross,triangle,circle,"0.697563521415238,0.19227379976898162,0.6538323072937366","0.35978173682339754,0.41977397962065344,-1.0","0.9342399836420399,0.1906568045828605,-1.0","1.0,-0.2897135245148047,-0.23135156862016248",283,133,84,6,"0.9342399836420399,0.1906568045828605,-1.0",84,"0.011345098196205106,0.4870029319956142,-0.41073039696963887",168,183,1.5029670000003534
Pri_ET_Study1_6,M,0/0/1900,2022-07-11_15h09.47.792,30,test,Prioritise4,2,circle,cross,square,triangle,"-0.15971287347422924,0.4846106035432911,0.16864202556096686","1.0,-0.007959551777363516,-1.0","1.0,-0.2812391217555803,-0.30713162009795525","1.0,-0.12344048141961106,0.3289459564990056",205,56,11,325,"1.0,-0.2812391217555803,-0.30713162009795525",11,"1.0,-0.2810383691272422,-0.05469022987079308",354,50,2.1521630999995978
Pri_ET_Study1_6,M,0/0/1900,2022-07-11_15h09.47.792,31,test,NoPrioritise,3,cross,triangle,circle,square,"0.7004475934634664,0.30455679594870433,-1.0","0.024156992038590452,0.42147876676365525,0.5201127943356356","0.984183681480933,0.0471694796759472,0.544551712303033","1.0,-0.2897135245148047,-0.23135156862016248",104,236,303,6,"1.0,-0.2897135245148047,-0.23135156862016248",6,"1.0,-0.13815640460244194,0.305409278040333",327,255,1.9714405000004263
Pri_ET_Study1_6,M,0/0/1900,2022-07-11_15h09.47.792,32,test,Prioritise1,0,triangle,square,cross,circle,"0.22896995211020998,0.45101907426419996,-1.0","0.854028730639278,0.2336538600688729,-1.0","1.0,-0.2885749142137033,-0.24639910949319843","-0.05454842094763246,0.44381461100324726,0.4456881091586087",145,91,7,228,"0.22896995211020998,0.45101907426419996,-1.0",145,"0.019624625934283157,0.48605247051678724,-0.428609032695351",167,216,2.2780923999998777
Pri_ET_Study1_6,M,0/0/1900,2022-07-11_15h09.47.792,33,test,Prioritise2,0,circle,cross,triangle,square,"1.0,-0.21911833444213913,-0.5474132739956148","0.8458569493622168,0.12238552790175761,0.6108291411981881","1.0,-0.24898244687401672,0.0724226931177736","1.0,0.14454808295369936,-1.0",26,293,345,77,"1.0,-0.21911833444213913,-0.5474132739956148",26,"-0.15601024525342333,0.4900377710624384,0.08414494382818494",199,333,1.4742452999998932
Pri_ET_Study1_6,M,0/0/1900,2022-07-11_15h09.47.792,34,test,Prioritise2,0,triangle,square,cross,circle,"1.0,-0.15960027999342463,0.2690977661520819","0.18759316868675757,0.45946387343509576,-0.8398972692549822","1.0,-0.23006636068103248,-0.5135224369802548","-0.15218698220497417,0.491399065672369,0.0550849709310266",330,149,24,197,"1.0,-0.15960027999342463,0.2690977661520819",330,"1.0,-0.03882752461224859,0.44751763152896373",314,1,4.677330399999846
Pri_ET_Study1_6,M,0/0/1900,2022-07-11_15h09.47.792,35,test,Prioritise1,1,cross,square,circle,triangle,"-0.11280811015512238,0.4617870748317987,0.35899735609320693","1.0,-0.20149881210311282,-0.6002331830476271","1.0,-0.2117453636986133,0.16700499532847024","0.29323185337982705,0.4365272844863326,-1.0",220,29,338,139,"1.0,-0.20149881210311282,-0.6002331830476271",29,"0.9342399836420399,0.1906568045828605,-1.0",84,340,2.5285734999997658
Pri_ET_Study1_6,M,0/0/1900,2022-07-11_15h09.47.792,36,test,Prioritise3,0,triangle,square,circle,cross,"1.0,0.008268781307839035,0.5033766660072689","1.0,-0.18262560807777894,-0.6564771422547051","-0.028015013033697245,0.49094955428922593,-0.32385780920023366","0.2277843781848521,0.3627318956570289,0.6269388339435948",308,32,173,252,"1.0,0.008268781307839035,0.5033766660072689",308,"-0.12538192785381974,0.49466166942996614,-0.0651744334368548",189,139,3.700197800000751
Pri_ET_Study1_6,M,0/0/1900,2022-07-11_15h09.47.792,37,test,NoPrioritise,1,circle,cross,triangle,square,"0.509921421288337,0.37533864292099284,-1.0","1.0,-0.24513616553833184,-0.4641238358039159","1.0,-0.1308360377071882,0.3172469791017578","-0.0789607698268403,0.4510515800167316,0.41453817725242015",120,21,326,225,"1.0,-0.24513616553833184,-0.4641238358039159",21,"0.4282253351913974,0.40067838587068505,-1.0",127,278,2.5043445000001157
Pri_ET_Study1_6,M,0/0/1900,2022-07-11_15h09.47.792,38,test,NoPrioritise,2,circle,cross,triangle,square,"0.011345098196205106,0.4870029319956142,-0.41073039696963887","1.0,0.05938674364207741,-1.0","1.0,-0.23006636068103248,-0.5135224369802548","-0.10032491436032498,0.45768874039972984,0.3817396096664756",168,65,24,222,"1.0,-0.23006636068103248,-0.5135224369802548",24,"0.38240568475417525,0.4136729392938614,-1.0",131,110,2.2125382999993235
Pri_ET_Study1_6,M,0/0/1900,2022-07-11_15h09.47.792,39,test,Prioritise4,1,triangle,cross,circle,square,"0.4819850074232215,0.2784837623913883,0.6721002952002628","1.0,-0.03882752461224859,0.44751763152896373","1.0,-0.24513616553833184,-0.4641238358039159","1.0,0.09568719202827336,-1.0",269,314,21,70,"1.0,-0.03882752461224859,0.44751763152896373",314,"0.10890282843090082,0.4735368131811257,-0.6233623294930688",157,300,1.4219105000001946
Pri_ET_Study1_6,M,0/0/1900,2022-07-11_15h09.47.792,40,test,Prioritise1,0,circle,triangle,cross,square,"1.0,0.09568719202827336,-1.0","0.40522526965537775,0.4073086888830977,-1.0","1.0,-0.28545618498147696,-0.27665271730440133","-0.14097292288545527,0.4934633616179327,-0.004268922352566595",70,129,9,193,"1.0,0.09568719202827336,-1.0",70,"1.0,0.03716450464441401,-1.0",62,319,1.5272838999999294
Pri_ET_Study1_6,M,0/0/1900,2022-07-11_15h09.47.792,41,test,Prioritise4,2,square,triangle,circle,cross,"0.7954699681646173,0.26233143705175754,-1.0","-0.1336957186097738,0.49417000388378884,-0.03453353894846056","0.4819850074232215,0.2784837623913883,0.6721002952002628","1.0,-0.2784883645829067,-0.04031082501765193",96,191,269,353,"0.4819850074232215,0.2784837623913883,0.6721002952002628",269,"0.8189948021797893,0.2510686603392729,-1.0",94,330,2.076082100000349
Pri_ET_Study1_6,M,0/0/1900,2022-07-11_15h09.47.792,42,test,NoPrioritise,2,cross,square,circle,triangle,"0.09017416231209929,0.4764835565228893,-0.581140049938324","-0.0864279937772866,0.4533299305616785,0.40378459741649797","0.43579397082986615,0.29501209376045523,0.6694809165992386","1.0,-0.16655302622891022,0.25673909055504174",159,224,266,331,"0.43579397082986615,0.29501209376045523,0.6694809165992386",266,"-0.017538974095646753,0.43320838581829424,0.48452289736445553",232,351,2.210001299999931
Pri_ET_Study1_6,M,0/0/1900,2022-07-11_15h09.47.792,43,test,Prioritise3,2,triangle,circle,square,cross,"1.0,0.14454808295369936,-1.0","0.3485477954945324,0.4227267056127266,-1.0","-0.15218698220497417,0.491399065672369,0.0550849709310266","0.7874973343482177,0.15108074255601633,0.6309286527694675",77,134,197,289,"-0.15218698220497417,0.491399065672369,0.0550849709310266",197,"-0.04273264564935253,0.4921547641531523,-0.29008164886068233",175,133,1.5230758999996397
Pri_ET_Study1_6,M,0/0/1900,2022-07-11_15h09.47.792,44,test,Prioritise4,1,cross,circle,square,triangle,"0.4511598862406947,0.28958122135142217,0.6706112376461497","1.0,-0.265680167273015,0.01659727634298691","-0.15325530146069954,0.47850880592239364,0.23567289266690317","0.2607905457923898,0.44405077031286466,-1.0",267,349,210,142,"1.0,-0.265680167273015,0.01659727634298691",349,"-0.1334211421392112,0.46921826779504494,0.31151742599586085",216,212,1.5361238999994384
Pri_ET_Study1_6,M,0/0/1900,2022-07-11_15h09.47.792,45,test,Prioritise3,1,cross,square,triangle,circle,"0.8314067698500829,0.129644828397681,0.6162087510840306","1.0,-0.291416597096681,-0.18651092035548889","0.9001622899209403,0.20948101299508481,-1.0","0.02803139784776887,0.4850479085911541,-0.44669070010662637",292,3,87,166,"1.0,-0.291416597096681,-0.18651092035548889",3,"0.07186027412725471,0.47920645949573504,-0.5409731165987569",161,319,3.1414678000001004
Pri_ET_Study1_6,M,0/0/1900,2022-07-11_15h09.47.792,46,test,Prioritise3,3,circle,square,triangle,cross,"1.0,-0.24898244687401672,0.0724226931177736","-0.12384754992127334,0.4656289401720195,0.3355818842165046","-0.01269399205840449,0.48953144240138324,-0.3581525544909092","0.8072476110492377,0.25673500061136667,-1.0",345,218,171,95,"0.8072476110492377,0.25673500061136667,-1.0",95,"0.2277843781848521,0.3627318956570289,0.6269388339435948",252,321,1.424506699999256
Pri_ET_Study1_6,M,0/0/1900,2022-07-11_15h09.47.792,47,test,Prioritise2,0,cross,circle,square,triangle,"-0.11280811015512238,0.4617870748317987,0.35899735609320693","1.0,-0.25349859092244853,0.058576446168723484","0.4397882380638529,0.39726260220805054,-1.0","1.0,0.031678509722878445,0.528693730626498",220,346,126,305,"-0.11280811015512238,0.4617870748317987,0.35899735609320693",220,"0.43579397082986615,0.29501209376045523,0.6694809165992386",266,343,2.5134780000007595
Pri_ET_Study1_6,M,0/0/1900,2022-07-11_15h09.47.792,48,test,Prioritise3,1,cross,circle,square,triangle,"-0.15218698220497417,0.491399065672369,0.0550849709310266","0.697563521415238,0.19227379976898162,0.6538323072937366","0.35978173682339754,0.41977397962065344,-1.0","1.0,0.14454808295369936,-1.0",197,283,133,77,"0.697563521415238,0.19227379976898162,0.6538323072937366",283,"0.6210691465439071,0.22472865664823272,0.6660842894513506",278,122,6.307153099999596
Pri_ET_Study1_6,M,0/0/1900,2022-07-11_15h09.47.792,49,test,NoPrioritise,1,cross,square,triangle,circle,"-0.11280811015512238,0.4617870748317987,0.35899735609320693","1.0,0.008268781307839035,0.5033766660072689","1.0,0.022205290041545256,-1.0","0.5810306884554026,0.3509198779468534,-1.0",220,308,60,114,"1.0,0.008268781307839035,0.5033766660072689",308,"0.1774490411200258,0.4614263698132157,-0.8044096137074778",150,71,1.3996698000000833
Pri_ET_Study1_6,M,0/0/1900,2022-07-11_15h09.47.792,50,test,NoPrioritise,1,square,circle,cross,triangle,"-0.05454842094763246,0.44381461100324726,0.4456881091586087","1.0,-0.2885749142137033,-0.24639910949319843","1.0,-0.07007995956776203,0.4066709204115653","0.8771865507724368,0.22170185938115816,-1.0",228,7,318,89,"1.0,-0.2885749142137033,-0.24639910949319843",7,"1.0,-0.283482916447115,-0.29186272671519153",10,34,13.601197300000422
Pri_ET_Study1_6,M,0/0/1900,2022-07-11_15h09.47.792,51,test,Prioritise3,3,cross,square,circle,triangle,"-0.06301515924349677,0.44629443292921844,0.43549282839157066","1.0,0.023895135487088437,0.520455959599228","0.4630300053623657,0.39022810787803497,-1.0","1.0,-0.24976805918886447,-0.4479639557291707",227,306,124,20,"1.0,-0.24976805918886447,-0.4479639557291707",20,"1.0,0.09568719202827336,-1.0",70,54,2.1231761999997616
Pri_ET_Study1_6,M,0/0/1900,2022-07-11_15h09.47.792,52,test,Prioritise1,2,triangle,circle,cross,square,"1.0,-0.15960027999342463,0.2690977661520819","0.019624625934283157,0.48605247051678724,-0.428609032695351","0.1997782184249719,0.37114427631595914,0.6168699381761522","1.0,-0.11314379054822865,-0.9277147292103822",330,167,250,42,"0.1997782184249719,0.37114427631595914,0.6168699381761522",250,"1.0,0.1377261376429495,-1.0",76,278,2.106576199999836
Pri_ET_Study1_6,M,0/0/1900,2022-07-11_15h09.47.792,53,test,Prioritise2,1,circle,cross,square,triangle,"0.8168605703912253,0.13684827598857496,0.6213530935889016","1.0,0.14454808295369936,-1.0","1.0,-0.18262560807777894,-0.6564771422547051","0.15891936573799903,0.3831804895186659,0.5999565135488085",291,77,32,247,"1.0,0.14454808295369936,-1.0",77,"1.0,-0.015534070910116049,-1.0",55,172,2.1065921999997954
Pri_ET_Study1_6,M,0/0/1900,2022-07-11_15h09.47.792,54,test,Prioritise3,3,square,cross,circle,triangle,"0.2081252941518954,0.4553611512282272,-0.9356957589344492","0.10691635848548953,0.39815526341168916,0.5740986907036785","1.0,-0.21761393967782516,0.1537648375256555","1.0,0.0885108071490186,-1.0",147,243,339,69,"1.0,0.0885108071490186,-1.0",69,"-0.04273264564935253,0.4921547641531523,-0.29008164886068233",175,208,2.0266351999998733
Pri_ET_Study1_6,M,0/0/1900,2022-07-11_15h09.47.792,55,test,Prioritise2,0,cross,triangle,circle,square,"0.9575099088241161,0.0625393185362546,0.5595685159060846","-0.15087465470231598,0.47711162872615454,0.24867635980838454","1.0,-0.28545618498147696,-0.27665271730440133","0.8072476110492377,0.25673500061136667,-1.0",301,211,9,95,"0.9575099088241161,0.0625393185362546,0.5595685159060846",301,"1.0,-0.14892208927791584,-0.7642951287839744",37,138,2.4970855999999912
Pri_ET_Study1_6,M,0/0/1900,2022-07-11_15h09.47.792,56,test,Prioritise3,3,triangle,square,circle,cross,"1.0,-0.28849207683894174,-0.11276294357485506","0.7874973343482177,0.15108074255601633,0.6309286527694675","0.1774490411200258,0.4614263698132157,-0.8044096137074778","1.0,-0.06852917744512788,-1.0",358,289,150,48,"1.0,-0.06852917744512788,-1.0",48,"1.0,0.10281785561567158,-1.0",71,268,4.580118199999561
Pri_ET_Study1_6,M,0/0/1900,2022-07-11_15h09.47.792,57,test,Prioritise2,1,circle,square,cross,triangle,"0.25011230249462657,0.4464347244570299,-1.0","-0.0864279937772866,0.4533299305616785,0.40378459741649797","1.0,-0.28849207683894174,-0.11276294357485506","0.6517915958318632,0.21196052870658733,0.661939301509457",143,224,358,280,"-0.0864279937772866,0.4533299305616785,0.40378459741649797",224,"-0.15691856372514257,0.4811251279442219,0.20925454252068332",208,279,3.7645996999999625
Pri_ET_Study1_6,M,0/0/1900,2022-07-11_15h09.47.792,58,test,NoPrioritise,3,circle,cross,square,triangle,"0.35968141037855483,0.3209804608831912,0.6599831247203418","1.0,0.01469043779870538,-1.0","-0.12538192785381974,0.49466166942996614,-0.0651744334368548","0.19781922438295352,0.4574422518266765,-0.8818361039644314",261,59,189,148,"0.19781922438295352,0.4574422518266765,-0.8818361039644314",148,"0.18759316868675757,0.45946387343509576,-0.8398972692549822",149,296,1.98568399999931
Pri_ET_Study1_6,M,0/0/1900,2022-07-11_15h09.47.792,59,test,Prioritise1,0,triangle,cross,circle,square,"1.0,0.022205290041545256,-1.0","-0.15913672951032076,0.48350679120805196,0.18230705521727808","0.1997782184249719,0.37114427631595914,0.6168699381761522","1.0,-0.28849207683894174,-0.11276294357485506",60,206,250,358,"1.0,0.022205290041545256,-1.0",60,"1.0,-0.030699357614306977,-1.0",53,121,2.137843900000007
Pri_ET_Study1_6,M,0/0/1900,2022-07-11_15h09.47.792,60,test,NoPrioritise,3,triangle,circle,square,cross,"1.0,-0.2117453636986133,0.16700499532847024","0.509921421288337,0.37533864292099284,-1.0","0.07186027412725471,0.47920645949573504,-0.5409731165987569","-0.045760705841983884,0.4412666063320212,0.45569155140365925",338,120,161,229,"-0.045760705841983884,0.4412666063320212,0.45569155140365925",229,"-0.07020697204541848,0.49392917223661503,-0.22388609625324785",179,54,2.3247252999999546
Pri_ET_Study1_6,M,0/0/1900,2022-07-11_15h09.47.792,61,test,Prioritise2,2,triangle,square,circle,cross,"1.0,-0.2583995670372059,-0.4160170008955538","-0.07663707943429687,0.49424057193593485,-0.2075945922293636","0.002753009035763032,0.42748599986642954,0.5027340537090634","1.0,-0.030978196634575572,0.4572913763932509",18,180,234,313,"0.002753009035763032,0.42748599986642954,0.5027340537090634",234,"-0.02724900693809007,0.43596400275120595,0.47511170232003863",231,218,2.426408199999969
Pri_ET_Study1_6,M,0/0/1900,2022-07-11_15h09.47.792,62,test,Prioritise2,2,triangle,circle,square,cross,"0.9439739668489959,0.07017173146500566,0.5667550331301558","0.6526534052453359,0.32395804637990677,-1.0","0.14752787305018233,0.4669625621869047,-0.7174796825499677","1.0,-0.09100024043058197,-1.0",300,108,153,45,"0.14752787305018233,0.4669625621869047,-0.7174796825499677",153,"-0.01269399205840449,0.48953144240138324,-0.3581525544909092",171,134,1.2373915999996825
Pri_ET_Study1_6,M,0/0/1900,2022-07-11_15h09.47.792,63,test,Prioritise4,1,triangle,square,circle,cross,"-0.10587186235375057,0.4950046804635242,-0.12755688133261178","0.22896995211020998,0.45101907426419996,-1.0","0.28536486694739915,0.3449661378960809,0.6441272460635925","0.9575099088241161,0.0625393185362546,0.5595685159060846",185,145,256,301,"0.22896995211020998,0.45101907426419996,-1.0",145,"-0.007535811164553707,0.4303825516742039,0.4937312314227156",233,257,2.5080348000001322
Pri_ET_Study1_6,M,0/0/1900,2022-07-11_15h09.47.792,64,test,Prioritise2,1,cross,triangle,square,circle,"0.8885895249151152,0.10029123080933622,0.593298310174416","0.08211922552252782,0.40518924666980105,0.5597871012004456","0.41670369996421397,0.40402696808005323,-1.0","-0.04985376064386149,0.4926777683571715,-0.2733707743273047",296,241,128,176,"0.08211922552252782,0.40518924666980105,0.5597871012004456",241,"0.04661056885000425,0.4151827959781793,0.5366388806382338",238,202,2.0038284000002022
Pri_ET_Study1_6,M,0/0/1900,2022-07-11_15h09.47.792,65,test,Prioritise1,1,triangle,cross,square,circle,"0.8458569493622168,0.12238552790175761,0.6108291411981881","0.8771865507724368,0.22170185938115816,-1.0","-0.10043403746491275,0.49495767021285575,-0.14337977127983403","0.40522526965537775,0.4073086888830977,-1.0",293,89,184,129,"0.8771865507724368,0.22170185938115816,-1.0",89,"0.024156992038590452,0.42147876676365525,0.5201127943356356",236,108,1.622762099999818
Pri_ET_Study1_6,M,0/0/1900,2022-07-11_15h09.47.792,66,test,Prioritise1,1,triangle,circle,cross,square,"-0.1336957186097738,0.49417000388378884,-0.03453353894846056","1.0,-0.23006636068103248,-0.5135224369802548","0.5902286499321849,0.2372037618456999,0.6692134526599127","0.7599790593392,0.278698430329378,-1.0",191,24,276,99,"1.0,-0.23006636068103248,-0.5135224369802548",24,"0.8314067698500829,0.129644828397681,0.6162087510840306",292,297,1.6588357999999062
Pri_ET_Study1_6,M,0/0/1900,2022-07-11_15h09.47.792,67,test,Prioritise1,2,triangle,circle,square,cross,"-0.12538192785381974,0.49466166942996614,-0.0651744334368548","1.0,-0.00039510366743955583,-1.0","-0.03665861455697994,0.4386499069954206,0.4655003413302212","1.0,-0.29113614091237483,-0.20140827106110581",189,57,230,4,"-0.03665861455697994,0.4386499069954206,0.4655003413302212",230,"1.0,-0.2784883645829067,-0.04031082501765193",353,75,1.323042300000452
Pri_ET_Study1_6,M,0/0/1900,2022-07-11_15h09.47.792,68,test,NoPrioritise,1,square,cross,triangle,circle,"1.0,-0.053431764767480794,-1.0","0.8022226392771252,0.14399413187212562,0.6262603189685363","0.4864131283203974,0.38292092452220805,-1.0","0.10691635848548953,0.39815526341168916,0.5740986907036785",50,290,122,243,"0.8022226392771252,0.14399413187212562,0.6262603189685363",290,"0.41670369996421397,0.40402696808005323,-1.0",128,243,1.5067509000000427
Pri_ET_Study1_6,M,0/0/1900,2022-07-11_15h09.47.792,69,test,Prioritise3,0,square,cross,circle,triangle,"-0.15936350859590664,0.487578374203653,0.1269149288768463","0.5691306813430501,0.3551652128948415,-1.0","1.0,-0.07783297952557244,0.3960373748090056","1.0,-0.28545618498147696,-0.27665271730440133",202,115,319,9,"-0.15936350859590664,0.487578374203653,0.1269149288768463",202,"1.0,0.029697581538389972,-1.0",61,61,1.276625200000126
Pri_ET_Study1_6,M,0/0/1900,2022-07-11_15h09.47.792,70,test,Prioritise4,2,triangle,square,circle,cross,"0.37478692104604905,0.3159453148278393,0.6623940312376342","0.30417514509994215,0.43389432139899475,-1.0","1.0,0.11693500061052231,-1.0","1.0,-0.2583995670372059,-0.4160170008955538",262,138,73,18,"1.0,0.11693500061052231,-1.0",73,"0.5438403016684124,0.25535465854340766,0.6719910833849003",273,303,1.345784399999502
Pri_ET_Study1_6,M,0/0/1900,2022-07-11_15h09.47.792,71,test,NoPrioritise,0,square,circle,cross,triangle,"0.019624625934283157,0.48605247051678724,-0.428609032695351","0.9566713411825642,0.17778746275501622,-1.0","1.0,-0.176090722701999,-0.6762956704638035","1.0,-0.265680167273015,0.01659727634298691",167,82,33,349,"0.019624625934283157,0.48605247051678724,-0.428609032695351",167,"-0.10587186235375057,0.4950046804635242,-0.12755688133261178",185,163,3.773599500000273
Pri_ET_Study1_6,M,0/0/1900,2022-07-11_15h09.47.792,72,test,Prioritise4,3,square,triangle,cross,circle,"-0.004817967995419115,0.4887422579776717,-0.37551595656205394","0.7718332302050808,0.2733134055615505,-1.0","0.04661056885000425,0.4151827959781793,0.5366388806382338","1.0,-0.2692625012388049,0.0024658652101630096",170,98,238,350,"1.0,-0.2692625012388049,0.0024658652101630096",350,"1.0,-0.2117453636986133,0.16700499532847024",338,214,8.539505999999164
Pri_ET_Study1_6,M,0/0/1900,2022-07-11_15h09.47.792,73,test,Prioritise3,1,cross,square,triangle,circle,"0.1377313063497616,0.46869198128419454,-0.6923217342230605","0.8656291340184048,0.2277117481201254,-1.0","0.9439739668489959,0.07017173146500566,0.5667550331301558","0.15891936573799903,0.3831804895186659,0.5999565135488085",154,90,300,247,"0.8656291340184048,0.2277117481201254,-1.0",90,"0.8886984490493344,0.21562474761751438,-1.0",88,349,2.7240356000002066
Pri_ET_Study1_6,M,0/0/1900,2022-07-11_15h09.47.792,74,test,Prioritise3,0,triangle,cross,circle,square,"0.18759316868675757,0.45946387343509576,-0.8398972692549822","0.37478692104604905,0.3159453148278393,0.6623940312376342","1.0,0.0885108071490186,-1.0","1.0,-0.1308360377071882,0.3172469791017578",149,262,69,326,"0.18759316868675757,0.45946387343509576,-0.8398972692549822",149,"0.04521328814621106,0.4828757040428189,-0.4835461552047625",164,30,1.822849999999562
Pri_ET_Study1_6,M,0/0/1900,2022-07-11_15h09.47.792,75,test,NoPrioritise,2,circle,cross,triangle,square,"-0.02724900693809007,0.43596400275120595,0.47511170232003863","1.0,-0.29113614091237483,-0.20140827106110581","1.0,-0.06852917744512788,-1.0","0.6670955436242052,0.20546863097446266,0.6594879335101997",231,4,48,281,"1.0,-0.06852917744512788,-1.0",48,"1.0,0.05938674364207741,-1.0",65,26,1.2678560000003927
Pri_ET_Study1_6,M,0/0/1900,2022-07-11_15h09.47.792,76,test,Prioritise3,3,triangle,square,circle,cross,"1.0,-0.28704790815198966,-0.09816451385922986","-0.004817967995419115,0.4887422579776717,-0.37551595656205394","1.0,0.10281785561567158,-1.0","0.21370971933434912,0.36697709911931464,0.6220261074603506",357,170,71,251,"0.21370971933434912,0.36697709911931464,0.6220261074603506",251,"0.8602068900008202,0.11507220116757,0.6052161878467197",294,3,1.9962021999999706
Pri_ET_Study1_6,M,0/0/1900,2022-07-11_15h09.47.792,77,test,NoPrioritise,0,square,triangle,cross,circle,"0.10691635848548953,0.39815526341168916,0.5740986907036785","-0.004817967995419115,0.4887422579776717,-0.37551595656205394","0.7481042841002781,0.28401253410301863,-1.0","1.0,-0.045861603138592444,-1.0",243,170,100,51,"0.10691635848548953,0.39815526341168916,0.5740986907036785",243,"0.7718332302050808,0.2733134055615505,-1.0",98,275,1.3706512999997358
Pri_ET_Study1_6,M,0/0/1900,2022-07-11_15h09.47.792,78,test,Prioritise2,1,cross,circle,triangle,square,"0.6287517000804042,0.333230015934751,-1.0","-0.09478536258948067,0.49485771099788134,-0.15929400236046964","1.0,-0.20149881210311282,-0.6002331830476271","-0.007535811164553707,0.4303825516742039,0.4937312314227156",110,183,29,233,"-0.09478536258948067,0.49485771099788134,-0.15929400236046964",183,"-0.01269399205840449,0.48953144240138324,-0.3581525544909092",171,64,2.9007558000002973
Pri_ET_Study1_6,M,0/0/1900,2022-07-11_15h09.47.792,79,test,Prioritise2,3,square,cross,circle,triangle,"-0.15857178695416452,0.48845422840718666,0.1127707600476957","0.9677931896988998,0.1712594071065523,-1.0","0.3373683384989987,0.425614728337375,-1.0","1.0,-0.25779156666188097,0.04465505589445962",201,81,135,347,"1.0,-0.25779156666188097,0.04465505589445962",347,"-0.02724900693809007,0.43596400275120595,0.47511170232003863",231,86,3.791925900000024
Pri_ET_Study1_6,M,0/0/1900,2022-07-11_15h09.47.792,80,test,Prioritise4,1,triangle,square,cross,circle,"0.35968141037855483,0.3209804608831912,0.6599831247203418","1.0,-0.2352776592018201,-0.4968859262116322","0.7362113369355152,0.2892555466706437,-1.0","-0.1481252589400609,0.4756545429797898,0.26153874370652797",261,23,101,212,"1.0,-0.2352776592018201,-0.4968859262116322",23,"1.0,0.13084904670314157,-1.0",75,343,1.4208045000004859
Pri_ET_Study1_6,M,0/0/1900,2022-07-11_15h09.47.792,81,test,Prioritise4,0,square,triangle,circle,cross,"1.0,-0.12765325079304635,-0.8480385611780058","0.17237529551869346,0.3792456671279014,0.6058334931269098","-0.1582066093163167,0.48234509352938293,0.19584550247902222","0.3485477954945324,0.4227267056127266,-1.0",40,248,207,134,"1.0,-0.12765325079304635,-0.8480385611780058",40,"1.0,-0.09842467873037941,-1.0",44,212,1.4812920000003942
Pri_ET_Study1_6,M,0/0/1900,2022-07-11_15h09.47.792,82,test,Prioritise1,3,triangle,circle,square,cross,"0.6287517000804042,0.333230015934751,-1.0","1.0,0.029697581538389972,-1.0","0.6670955436242052,0.20546863097446266,0.6594879335101997","1.0,-0.10844910144201803,0.3519141850209708",110,61,281,323,"1.0,-0.10844910144201803,0.3519141850209708",323,"0.6210691465439071,0.22472865664823272,0.6660842894513506",278,265,3.674184499999683
Pri_ET_Study1_6,M,0/0/1900,2022-07-11_15h09.47.792,83,test,Prioritise2,2,triangle,cross,square,circle,"0.3937919637711427,0.41052389502637143,-1.0","1.0,-0.03882752461224859,0.44751763152896373","1.0,-0.20752138035248524,-0.5823144238115788","0.27079222332264496,0.349525727356639,0.6402021298134932",130,314,28,255,"1.0,-0.20752138035248524,-0.5823144238115788",28,"1.0,-0.11314379054822865,-0.9277147292103822",42,123,1.7530270999995992
Pri_ET_Study1_6,M,0/0/1900,2022-07-11_15h09.47.792,84,test,Prioritise4,1,cross,circle,triangle,square,"0.12802681261339854,0.47036395437091305,-0.6683938146358337","0.21370971933434912,0.36697709911931464,0.6220261074603506","1.0,-0.2885749142137033,-0.24639910949319843","1.0,0.1377261376429495,-1.0",155,251,7,76,"0.21370971933434912,0.36697709911931464,0.6220261074603506",251,"0.9973143857544444,0.03943765994348003,0.5367265506444097",304,110,1.3403214999998454
Pri_ET_Study1_6,M,0/0/1900,2022-07-11_15h09.47.792,85,test,Prioritise2,0,triangle,circle,square,cross,"-0.045760705841983884,0.4412666063320212,0.45569155140365925","0.5335383805596645,0.36747902832868284,-1.0","0.5902286499321849,0.2372037618456999,0.6692134526599127","1.0,-0.060989074760531836,-1.0",229,118,276,49,"-0.045760705841983884,0.4412666063320212,0.45569155140365925",229,"-0.15913672951032076,0.48350679120805196,0.18230705521727808",206,249,1.2622235999997429
Pri_ET_Study1_6,M,0/0/1900,2022-07-11_15h09.47.792,86,test,Prioritise3,1,square,triangle,cross,circle,"0.43579397082986615,0.29501209376045523,0.6694809165992386","1.0,-0.2618543528600009,0.0306611530728087","0.4864131283203974,0.38292092452220805,-1.0","1.0,0.1377261376429495,-1.0",266,348,122,76,"1.0,-0.2618543528600009,0.0306611530728087",348,"1.0,-0.2853220527670477,-0.0836186653125478",356,212,2.208916099999442
Pri_ET_Study1_6,M,0/0/1900,2022-07-11_15h09.47.792,87,test,Prioritise4,3,circle,triangle,cross,square,"0.5128942075651803,0.26707393527284795,0.6725600501236935","1.0,-0.07007995956776203,0.4066709204115653","1.0,-0.13481497066722903,-0.8172789642511413","0.5929450132200651,0.3466038519932022,-1.0",271,318,39,113,"0.5929450132200651,0.3466038519932022,-1.0",113,"0.5335383805596645,0.36747902832868284,-1.0",118,44,7.071257500000684
Pri_ET_Study1_6,M,0/0/1900,2022-07-11_15h09.47.792,88,test,Prioritise1,1,cross,square,circle,triangle,"-0.1336957186097738,0.49417000388378884,-0.03453353894846056","0.4282253351913974,0.40067838587068505,-1.0","1.0,-0.21911833444213913,-0.5474132739956148","0.7874973343482177,0.15108074255601633,0.6309286527694675",191,127,26,289,"0.4282253351913974,0.40067838587068505,-1.0",127,"0.3485477954945324,0.4227267056127266,-1.0",134,38,2.4389533999992636
Pri_ET_Study1_6,M,0/0/1900,2022-07-11_15h09.47.792,89,test,Prioritise2,3,cross,square,circle,triangle,"0.17237529551869346,0.3792456671279014,0.6058334931269098","0.30417514509994215,0.43389432139899475,-1.0","1.0,-0.2810383691272422,-0.05469022987079308","0.9026141269879491,0.09282770385166228,0.5869975937203944",248,138,354,297,"0.9026141269879491,0.09282770385166228,0.5869975937203944",297,"-0.004817967995419115,0.4887422579776717,-0.37551595656205394",170,159,1.391924200000176
Pri_ET_Study1_6,M,0/0/1900,2022-07-11_15h09.47.792,90,test,NoPrioritise,1,cross,square,circle,triangle,"0.9165223056430671,0.08531838961047389,0.5804719469242157","0.6048714455845987,0.34221696469187823,-1.0","0.1456375685133382,0.387038501124352,0.5938426811268567","-0.1160886962144162,0.49493957268076216,-0.09618366371381681",298,112,246,187,"0.6048714455845987,0.34221696469187823,-1.0",112,"0.4981526525436166,0.3791643150394166,-1.0",121,51,2.7503830999994534
Pri_ET_Study1_6,M,0/0/1900,2022-07-11_15h09.47.792,91,test,Prioritise4,0,circle,triangle,square,cross,"1.0,-0.12344048141961106,0.3289459564990056","-0.11109230792064029,0.494998675286374,-0.11182488810932678","-0.007535811164553707,0.4303825516742039,0.4937312314227156","0.41670369996421397,0.40402696808005323,-1.0",325,186,233,128,"1.0,-0.12344048141961106,0.3289459564990056",325,"0.4864131283203974,0.38292092452220805,-1.0",122,17,2.4175764999999956
Pri_ET_Study1_6,M,0/0/1900,2022-07-11_15h09.47.792,92,test,Prioritise4,2,cross,square,circle,triangle,"0.8307090529045498,0.2453327610063578,-1.0","0.29323185337982705,0.4365272844863326,-1.0","0.6670955436242052,0.20546863097446266,0.6594879335101997","1.0,-0.2541916545294901,-0.43193236346031305",93,139,281,19,"0.6670955436242052,0.20546863097446266,0.6594879335101997",281,"0.7874973343482177,0.15108074255601633,0.6309286527694675",289,215,3.9262173999995866
Pri_ET_Study1_6,M,0/0/1900,2022-07-11_15h09.47.792,93,test,Prioritise2,2,triangle,cross,circle,square,"-0.15971287347422924,0.4846106035432911,0.16864202556096686","0.1673887875274096,0.46333008938060627,-0.7729226224565875","1.0,-0.24898244687401672,0.0724226931177736","1.0,-0.09100024043058197,-1.0",205,151,345,45,"1.0,-0.24898244687401672,0.0724226931177736",345,"0.09017416231209929,0.4764835565228893,-0.581140049938324",159,167,1.2503202999996574
Pri_ET_Study1_6,M,0/0/1900,2022-07-11_15h09.47.792,94,test,Prioritise2,3,triangle,circle,square,cross,"1.0,-0.03882752461224859,0.44751763152896373","0.6168077568629242,0.33775906377670717,-1.0","-0.03665861455697994,0.4386499069954206,0.4655003413302212","0.14752787305018233,0.4669625621869047,-0.7174796825499677",314,111,230,153,"0.14752787305018233,0.4669625621869047,-0.7174796825499677",153,"-0.08288077159008311,0.49449913405181634,-0.1914000323192474",181,139,1.458439900000485
Pri_ET_Study1_6,M,0/0/1900,2022-07-11_15h09.47.792,95,test,Prioritise2,3,circle,cross,triangle,square,"1.0,-0.15960027999342463,0.2690977661520819","0.6646065852612066,0.3192149609683923,-1.0","1.0,-0.26238457869240295,-0.4002073564444957","1.0,0.04460337025072447,-1.0",330,107,17,63,"1.0,0.04460337025072447,-1.0",63,"0.6765582342033039,0.31440040312493167,-1.0",106,319,2.219042900000204
Pri_ET_Study1_6,M,0/0/1900,2022-07-11_15h09.47.792,96,test,Prioritise1,2,triangle,square,circle,cross,"0.5593128013847881,0.24938009178326226,0.6713213889936891","1.0,-0.21911833444213913,-0.5474132739956148","0.12802681261339854,0.47036395437091305,-0.6683938146358337","0.6885060196604067,0.3095143481419429,-1.0",274,26,155,105,"0.12802681261339854,0.47036395437091305,-0.6683938146358337",155,"1.0,-0.2897135245148047,-0.23135156862016248",6,313,1.4084208000003855
Pri_ET_Study1_6,M,0/0/1900,2022-07-11_15h09.47.792,97,test,Prioritise1,3,cross,square,circle,triangle,"0.557247182986663,0.35934004439537626,-1.0","0.2277843781848521,0.3627318956570289,0.6269388339435948","1.0,-0.266139671692747,-0.3844942650329082","-0.15745197328482874,0.48927392525561153,0.09851328502402845",116,252,16,200,"-0.15745197328482874,0.48927392525561153,0.09851328502402845",200,"-0.045760705841983884,0.4412666063320212,0.45569155140365925",229,86,1.171053999999458
Pri_ET_Study1_6,M,0/0/1900,2022-07-11_15h09.47.792,98,test,Prioritise3,3,cross,circle,triangle,square,"1.0,-0.21761393967782516,0.1537648375256555","0.4051864188365102,0.30563705046778256,0.6664498358678796","1.0,-0.14190666083918357,-0.7896703829265752","0.003196340864616065,0.48789947231709707,-0.3930376390559923",339,264,38,169,"0.003196340864616065,0.48789947231709707,-0.3930376390559923",169,"-0.05680994196765965,0.4931478034098584,-0.2567707460520542",177,354,1.3009775000000445
Pri_ET_Study1_6,M,0/0/1900,2022-07-11_15h09.47.792,99,test,Prioritise3,0,circle,square,triangle,cross,"1.0,-0.16269839246793216,-0.7181852224820324","1.0,-0.1801231371030828,0.23165973332613699","0.5902286499321849,0.2372037618456999,0.6692134526599127","-0.0864279937772866,0.4533299305616785,0.40378459741649797",35,333,276,224,"1.0,-0.16269839246793216,-0.7181852224820324",35,"0.8423878648894922,0.2395276862660105,-1.0",92,282,3.554033499999605
Pri_ET_Study1_6,M,0/0/1900,2022-07-11_15h09.47.792,100,test,Prioritise4,0,square,circle,cross,triangle,"0.4397882380638529,0.39726260220805054,-1.0","0.02803139784776887,0.4850479085911541,-0.44669070010662637","0.13253781604398185,0.3908200528647623,0.5874938236427092","0.911575527904773,0.20327130372654878,-1.0",126,166,245,86,"0.4397882380638529,0.39726260220805054,-1.0",126,"0.10890282843090082,0.4735368131811257,-0.6233623294930688",157,253,1.8021330000001399
Pri_ET_Study1_6,M,0/0/1900,2022-07-11_15h09.47.792,101,test,NoPrioritise,1,triangle,cross,square,circle,"0.7278119810668549,0.17880451220180715,0.6471802765379799","0.2607905457923898,0.44405077031286466,-1.0","1.0,-0.23006636068103248,-0.5135224369802548","-0.15601024525342333,0.4900377710624384,0.08414494382818494",285,142,24,199,"0.2607905457923898,0.44405077031286466,-1.0",142,"0.7243026375027783,0.2944273290124073,-1.0",102,118,7.757320099999561
Pri_ET_Study1_6,M,0/0/1900,2022-07-11_15h09.47.792,102,test,Prioritise3,3,square,cross,triangle,circle,"0.8744524420551003,0.1077067653533772,0.5993718879433354","1.0,-0.27567226916307197,-0.025990342729996674","-0.14981892062729885,0.491997057231198,0.04039774195876733","1.0,-0.1558548551326704,-0.7405909184559469",295,352,196,36,"1.0,-0.1558548551326704,-0.7405909184559469",36,"1.0,-0.20752138035248524,-0.5823144238115788",28,247,2.658877400000165
Pri_ET_Study1_6,M,0/0/1900,2022-07-11_15h09.47.792,103,test,Prioritise1,0,circle,cross,triangle,square,"0.6210691465439071,0.22472865664823272,0.6660842894513506","1.0,-0.045861603138592444,-1.0","1.0,-0.27259515439613147,-0.011730747350127468","0.7599790593392,0.278698430329378,-1.0",278,51,351,99,"0.6210691465439071,0.22472865664823272,0.6660842894513506",278,"0.6517915958318632,0.21196052870658733,0.661939301509457",280,120,3.958070399999997
Pri_ET_Study1_6,M,0/0/1900,2022-07-11_15h09.47.792,104,test,NoPrioritise,1,circle,triangle,cross,square,"-0.15425303278284086,0.49074605836511664,0.06966808771232391","0.35968141037855483,0.3209804608831912,0.6599831247203418","0.7004475934634664,0.30455679594870433,-1.0","1.0,-0.176090722701999,-0.6762956704638035",198,261,104,33,"0.35968141037855483,0.3209804608831912,0.6599831247203418",261,"0.7726890832158932,0.15810653737494773,0.6353563968956581",288,219,2.151404000000184
Pri_ET_Study1_6,M,0/0/1900,2022-07-11_15h09.47.792,105,test,NoPrioritise,1,square,cross,triangle,circle,"-0.03665861455697994,0.4386499069954206,0.4655003413302212","0.9165223056430671,0.08531838961047389,0.5804719469242157","1.0,0.05938674364207741,-1.0","0.21850949126575658,0.4532202130288874,-0.9933869065076532",230,298,65,146,"0.9165223056430671,0.08531838961047389,0.5804719469242157",298,"0.7123805921607476,0.2995277721370815,-1.0",103,327,3.3718469000004916
Pri_ET_Study1_6,M,0/0/1900,2022-07-11_15h09.47.792,106,test,NoPrioritise,2,triangle,circle,square,cross,"1.0,0.0885108071490186,-1.0","-0.14981892062729885,0.491997057231198,0.04039774195876733","0.1997782184249719,0.37114427631595914,0.6168699381761522","1.0,-0.28715474606071,-0.26149890951485844",69,196,250,8,"0.1997782184249719,0.37114427631595914,0.6168699381761522",250,"0.019624625934283157,0.48605247051678724,-0.428609032695351",167,244,2.840405500000088
Pri_ET_Study1_6,M,0/0/1900,2022-07-11_15h09.47.792,107,test,Prioritise1,1,square,circle,cross,triangle,"1.0,0.031678509722878445,0.528693730626498","1.0,-0.07604755533137741,-1.0","0.8189948021797893,0.2510686603392729,-1.0","0.09441071644993415,0.40170970408167506,0.5670564126145141",305,47,94,242,"1.0,-0.07604755533137741,-1.0",47,"0.8423878648894922,0.2395276862660105,-1.0",92,320,2.8910508999997546
Pri_ET_Study1_6,M,0/0/1900,2022-07-11_15h09.47.792,108,test,Prioritise4,0,square,cross,circle,triangle,"1.0,-0.2696580629443429,-0.3688697412252795","0.9439739668489959,0.07017173146500566,0.5667550331301558","1.0,0.1377261376429495,-1.0","-0.15936350859590664,0.487578374203653,0.1269149288768463",15,300,76,202,"1.0,-0.2696580629443429,-0.3688697412252795",15,"1.0,-0.2897135245148047,-0.23135156862016248",6,250,7.28321380000034
Pri_ET_Study1_6,M,0/0/1900,2022-07-11_15h09.47.792,109,test,Prioritise2,3,square,cross,circle,triangle,"1.0,0.14454808295369936,-1.0","-0.13746749759655974,0.49384364036211803,-0.01935357496354817","1.0,-0.1308360377071882,0.3172469791017578","1.0,-0.266139671692747,-0.3844942650329082",77,192,326,16,"1.0,-0.266139671692747,-0.3844942650329082",16,"1.0,0.0885108071490186,-1.0",69,314,2.4262957999999344
Pri_ET_Study1_6,M,0/0/1900,2022-07-11_15h09.47.792,110,test,Prioritise1,1,circle,square,cross,triangle,"1.0,-0.29111130123666484,-0.15686324257888173","0.38995744222104256,0.31083082350540914,0.6645497918058341","0.7954699681646173,0.26233143705175754,-1.0","-0.15218698220497417,0.491399065672369,0.0550849709310266",1,263,96,197,"0.38995744222104256,0.31083082350540914,0.6645497918058341",263,"1.0,-0.2812391217555803,-0.30713162009795525",11,126,3.1602728999996543
Pri_ET_Study1_6,M,0/0/1900,2022-07-11_15h09.47.792,111,test,Prioritise1,3,circle,triangle,square,cross,"1.0,-0.266139671692747,-0.3844942650329082","-0.0864279937772866,0.4533299305616785,0.40378459741649797","0.8656291340184048,0.2277117481201254,-1.0","0.9165223056430671,0.08531838961047389,0.5804719469242157",16,224,90,298,"0.9165223056430671,0.08531838961047389,0.5804719469242157",298,"0.1184165720364383,0.4719787961363635,-0.6454646836219573",156,286,2.9255399999992733
Pri_ET_Study1_6,M,0/0/1900,2022-07-11_15h09.47.792,112,test,Prioritise1,2,square,circle,cross,triangle,"0.11962807502985351,0.3945255124543332,0.5809118383777745","1.0,-0.28704790815198966,-0.09816451385922986","1.0,-0.023115205136178596,-1.0","0.5929450132200651,0.3466038519932022,-1.0",244,357,54,113,"1.0,-0.023115205136178596,-1.0",54,"1.0,-0.2787294505909397,-0.3224626175099854",12,186,2.7545259999997143
Pri_ET_Study1_6,M,0/0/1900,2022-07-11_15h09.47.792,113,test,Prioritise1,0,cross,triangle,circle,square,"1.0,-0.19319706407583936,0.20612000948251996","-0.1599394399400429,0.4856569012506431,0.15485318992015062","0.1673887875274096,0.46333008938060627,-0.7729226224565875","0.8744524420551003,0.1077067653533772,0.5993718879433354",335,204,151,295,"1.0,-0.19319706407583936,0.20612000948251996",335,"0.984183681480933,0.0471694796759472,0.544551712303033",303,219,3.32290329999978
Pri_ET_Study1_6,M,0/0/1900,2022-07-11_15h09.47.792,114,test,NoPrioritise,1,cross,triangle,circle,square,"0.7718332302050808,0.2733134055615505,-1.0","1.0,-0.08353952619481586,-1.0","-0.14981892062729885,0.491997057231198,0.04039774195876733","0.9165223056430671,0.08531838961047389,0.5804719469242157",98,46,196,298,"1.0,-0.08353952619481586,-1.0",46,"0.23950483221035568,0.4487573681220651,-1.0",144,28,7.265163500000199
Pri_ET_Study1_6,M,0/0/1900,2022-07-11_15h09.47.792,115,test,Prioritise1,3,circle,square,triangle,cross,"-0.15971287347422924,0.4846106035432911,0.16864202556096686","1.0,0.029697581538389972,-1.0","1.0,-0.24976805918886447,-0.4479639557291707","0.2419946445565604,0.35840841428502257,0.6316066564714324",205,61,20,253,"0.2419946445565604,0.35840841428502257,0.6316066564714324",253,"0.8885895249151152,0.10029123080933622,0.593298310174416",296,85,2.365350000000035
Pri_ET_Study1_6,M,0/0/1900,2022-07-11_15h09.47.792,116,test,Prioritise2,2,cross,circle,triangle,square,"-0.15745197328482874,0.48927392525561153,0.09851328502402845","1.0,0.016090771115826907,0.5120159997035829","0.3937919637711427,0.41052389502637143,-1.0","0.9566713411825642,0.17778746275501622,-1.0",200,307,130,82,"0.3937919637711427,0.41052389502637143,-1.0",130,"-0.03545149328753128,0.4915787209123279,-0.3069086161051545",174,36,3.2042612000004738
Pri_ET_Study1_6,M,0/0/1900,2022-07-11_15h09.47.792,117,test,Prioritise3,2,triangle,square,cross,circle,"0.9788490541088481,0.1646703741338249,-1.0","-0.10032491436032498,0.45768874039972984,0.3817396096664756","0.4981526525436166,0.3791643150394166,-1.0","0.6210691465439071,0.22472865664823272,0.6660842894513506",80,222,121,278,"0.4981526525436166,0.3791643150394166,-1.0",121,"0.37106831880418345,0.41675617985472035,-1.0",132,252,5.218954400000257
Pri_ET_Study1_6,M,0/0/1900,2022-07-11_15h09.47.792,118,test,Prioritise3,0,circle,square,cross,triangle,"0.4282253351913974,0.40067838587068505,-1.0","0.7726890832158932,0.15810653737494773,0.6353563968956581","1.0,-0.24976805918886447,-0.4479639557291707","0.9788490541088481,0.1646703741338249,-1.0",127,288,20,80,"0.4282253351913974,0.40067838587068505,-1.0",127,"0.2081252941518954,0.4553611512282272,-0.9356957589344492",147,8,4.093344599999909
Pri_ET_Study1_6,M,0/0/1900,2022-07-11_15h09.47.792,119,test,Prioritise4,2,triangle,circle,cross,square,"-0.0789607698268403,0.4510515800167316,0.41453817725242015","0.509921421288337,0.37533864292099284,-1.0","1.0,-0.28849207683894174,-0.11276294357485506","0.9898363577373541,0.15802139914365565,-1.0",225,120,358,79,"1.0,-0.28849207683894174,-0.11276294357485506",358,"0.19781922438295352,0.4574422518266765,-0.8818361039644314",148,221,3.5769868999996106
Pri_ET_Study1_6,M,0/0/1900,2022-07-11_15h09.47.792,120,test,Prioritise1,1,triangle,cross,square,circle,"0.011345098196205106,0.4870029319956142,-0.41073039696963887","0.002753009035763032,0.42748599986642954,0.5027340537090634","1.0,-0.2784883645829067,-0.04031082501765193","0.6287517000804042,0.333230015934751,-1.0",168,234,353,110,"0.002753009035763032,0.42748599986642954,0.5027340537090634",234,"0.697563521415238,0.19227379976898162,0.6538323072937366",283,5,2.5187553999994634
Pri_ET_Study1_6,M,0/0/1900,2022-07-11_15h09.47.792,121,test,Prioritise3,1,triangle,circle,square,cross,"0.6526534052453359,0.32395804637990677,-1.0","1.0,-0.2897135245148047,-0.23135156862016248","-0.15745197328482874,0.48927392525561153,0.09851328502402845","0.17237529551869346,0.3792456671279014,0.6058334931269098",108,6,200,248,"1.0,-0.2897135245148047,-0.23135156862016248",6,"1.0,-0.176090722701999,-0.6762956704638035",33,258,3.2859330999999656
Pri_ET_Study1_6,M,0/0/1900,2022-07-11_15h09.47.792,122,test,Prioritise3,3,square,cross,circle,triangle,"-0.13746749759655974,0.49384364036211803,-0.01935357496354817","1.0,-0.2787294505909397,-0.3224626175099854","1.0,-0.17339639938985352,0.2442586263282529","1.0,0.007155954649565421,-1.0",192,12,332,58,"1.0,0.007155954649565421,-1.0",58,"1.0,-0.12042756170577695,-0.8836340589512358",41,46,3.2014165000000503
Pri_ET_Study1_6,M,0/0/1900,2022-07-11_15h09.47.792,123,test,Prioritise1,0,triangle,square,circle,cross,"1.0,-0.13481497066722903,-0.8172789642511413","0.509921421288337,0.37533864292099284,-1.0","1.0,-0.19952917352700617,0.19318579588388318","0.002753009035763032,0.42748599986642954,0.5027340537090634",39,120,336,234,"1.0,-0.13481497066722903,-0.8172789642511413",39,"1.0,-0.015534070910116049,-1.0",55,76,3.221131099999184
Pri_ET_Study1_6,M,0/0/1900,2022-07-11_15h09.47.792,124,test,Prioritise1,0,square,cross,circle,triangle,"0.6168077568629242,0.33775906377670717,-1.0","0.8022226392771252,0.14399413187212562,0.6262603189685363","1.0,-0.015534070910116049,-1.0","-0.14500574250124976,0.47413711311303364,0.2742570559677715",111,290,55,213,"0.6168077568629242,0.33775906377670717,-1.0",111,"0.6526534052453359,0.32395804637990677,-1.0",108,63,4.91161479999937
Pri_ET_Study1_6,M,0/0/1900,2022-07-11_15h09.47.792,125,test,Prioritise1,0,cross,triangle,square,circle,"-0.10587186235375057,0.4950046804635242,-0.12755688133261178","0.7243026375027783,0.2944273290124073,-1.0","1.0,-0.2583995670372059,-0.4160170008955538","1.0,-0.13815640460244194,0.305409278040333",185,102,18,327,"-0.10587186235375057,0.4950046804635242,-0.12755688133261178",185,"0.12802681261339854,0.47036395437091305,-0.6683938146358337",155,246,3.408825800000159
Pri_ET_Study1_6,M,0/0/1900,2022-07-11_15h09.47.792,126,test,Prioritise1,3,circle,triangle,square,cross,"0.2607905457923898,0.44405077031286466,-1.0","1.0,-0.27567226916307197,-0.025990342729996674","0.7836643519746782,0.2678576623980824,-1.0","0.013319861281873457,0.4245182348375207,0.5115287599103473",142,352,97,235,"0.013319861281873457,0.4245182348375207,0.5115287599103473",235,"0.03525654226328623,0.4183671124064994,0.5284836519992187",237,347,1.6448717000002944
Pri_ET_Study1_6,M,0/0/1900,2022-07-11_15h09.47.792,127,test,Prioritise4,0,cross,triangle,square,circle,"-0.1160886962144162,0.49493957268076216,-0.09618366371381681","0.32969209843730707,0.3308126345090221,0.6543985772501693","1.0,-0.007413941176475647,0.4855113905503705","0.3937919637711427,0.41052389502637143,-1.0",187,259,310,130,"-0.1160886962144162,0.49493957268076216,-0.09618366371381681",187,"0.04521328814621106,0.4828757040428189,-0.4835461552047625",164,341,7.788954200000262
Pri_ET_Study1_6,M,0/0/1900,2022-07-11_15h09.47.792,128,test,Prioritise3,0,circle,square,cross,triangle,"1.0,-0.03828278687151976,-1.0","0.7127176267031001,0.18557291042394586,0.6506302425082333","-0.15936350859590664,0.487578374203653,0.1269149288768463","1.0,-0.2905679542092485,-0.21635494529981825",52,284,202,5,"1.0,-0.03828278687151976,-1.0",52,"1.0,-0.09842467873037941,-1.0",44,67,3.324276300000747
Pri_ET_Study1_6,M,0/0/1900,2022-07-11_15h09.47.792,129,test,NoPrioritise,2,triangle,circle,cross,square,"0.9677931896988998,0.1712594071065523,-1.0","1.0,-0.20752138035248524,-0.5823144238115788","-0.10674528321075638,0.4597702151299572,0.3704541436797111","0.3373683384989987,0.425614728337375,-1.0",81,28,221,135,"-0.10674528321075638,0.4597702151299572,0.3704541436797111",221,"0.04521328814621106,0.4828757040428189,-0.4835461552047625",164,55,2.1628506999995807
Pri_ET_Study1_6,M,0/0/1900,2022-07-11_15h09.47.792,130,test,Prioritise1,2,square,cross,triangle,circle,"1.0,-0.13481497066722903,-0.8172789642511413","-0.04985376064386149,0.4926777683571715,-0.2733707743273047","0.2277843781848521,0.3627318956570289,0.6269388339435948","1.0,-0.2810383691272422,-0.05469022987079308",39,176,252,354,"0.2277843781848521,0.3627318956570289,0.6269388339435948",252,"0.4630300053623657,0.39022810787803497,-1.0",124,289,3.876380099999551
Pri_ET_Study1_6,M,0/0/1900,2022-07-11_15h09.47.792,131,test,NoPrioritise,3,square,cross,triangle,circle,"0.8885895249151152,0.10029123080933622,0.593298310174416","0.47470490157818523,0.38660875671905104,-1.0","-0.0864279937772866,0.4533299305616785,0.40378459741649797","1.0,-0.291416597096681,-0.18651092035548889",296,123,224,3,"1.0,-0.291416597096681,-0.18651092035548889",3,"-0.06359610428535867,0.4935649245563736,-0.24027710533734647",178,293,2.9930624999997235
Pri_ET_Study1_6,M,0/0/1900,2022-07-11_15h09.47.792,132,test,Prioritise4,1,square,circle,cross,triangle,"1.0,-0.23930972970484676,0.09987881270213972","0.0809641014742315,0.4778728517952051,-0.560834903418019","0.3000437839717358,0.34032750492681907,0.6478023910819077","-0.1598212484830719,0.4866460428277808,0.1409432704458322",343,160,257,203,"0.0809641014742315,0.4778728517952051,-0.560834903418019",160,"1.0,-0.03828278687151976,-1.0",52,264,4.285548199999539
Pri_ET_Study1_6,M,0/0/1900,2022-07-11_15h09.47.792,133,test,NoPrioritise,3,cross,triangle,circle,square,"0.6765582342033039,0.31440040312493167,-1.0","-0.1599394399400429,0.4856569012506431,0.15485318992015062","0.2563330525591274,0.3540064263668754,0.6360281906414551","1.0,-0.1558548551326704,-0.7405909184559469",106,204,254,36,"1.0,-0.1558548551326704,-0.7405909184559469",36,"1.0,-0.2759589912597996,-0.3378595329546661",13,132,3.3720729999995456
Pri_ET_Study1_6,M,0/0/1900,2022-07-11_15h09.47.792,134,test,Prioritise2,0,square,triangle,circle,cross,"0.9026141269879491,0.09282770385166228,0.5869975937203944","0.3373683384989987,0.425614728337375,-1.0","0.8771865507724368,0.22170185938115816,-1.0","-0.15936350859590664,0.487578374203653,0.1269149288768463",297,135,89,202,"0.9026141269879491,0.09282770385166228,0.5869975937203944",297,"-0.07020697204541848,0.49392917223661503,-0.22388609625324785",179,233,4.369311999999809
Pri_ET_Study1_6,M,0/0/1900,2022-07-11_15h09.47.792,135,test,Prioritise2,1,circle,cross,square,triangle,"0.7123805921607476,0.2995277721370815,-1.0","1.0,-0.10086551076024819,0.3631766774585774","-0.12881863109484093,0.46745492896353924,0.32362925960524147","0.1377313063497616,0.46869198128419454,-0.6923217342230605",103,322,217,154,"1.0,-0.10086551076024819,0.3631766774585774",322,"0.9709143462906737,0.05487098646765176,0.5521665648538059",302,99,3.371139100000619
Pri_ET_Study1_6,M,0/0/1900,2022-07-11_15h09.47.792,136,test,Prioritise3,0,cross,triangle,circle,square,"0.3446475566939091,0.32593623267112437,0.6573177271493604","1.0,-0.1453950522675579,0.29343624696038684","1.0,-0.26238457869240295,-0.4002073564444957","0.4397882380638529,0.39726260220805054,-1.0",260,328,17,126,"0.3446475566939091,0.32593623267112437,0.6573177271493604",260,"0.9566713411825642,0.17778746275501622,-1.0",82,125,3.9337535999993634
Pri_ET_Study1_6,M,0/0/1900,2022-07-11_15h09.47.792,137,test,Prioritise1,3,cross,square,circle,triangle,"0.5217173616076898,0.3714436344565344,-1.0","0.2419946445565604,0.35840841428502257,0.6316066564714324","1.0,-0.20752138035248524,-0.5823144238115788","0.02803139784776887,0.4850479085911541,-0.44669070010662637",119,253,28,166,"0.02803139784776887,0.4850479085911541,-0.44669070010662637",166,"-0.12538192785381974,0.49466166942996614,-0.0651744334368548",189,131,3.175115299999561
Pri_ET_Study1_6,M,0/0/1900,2022-07-11_15h09.47.792,138,test,Prioritise1,2,circle,cross,triangle,square,"1.0,-0.1801231371030828,0.23165973332613699","0.7481042841002781,0.28401253410301863,-1.0","-0.020427730643879483,0.49026716567376205,-0.3409363637973366","0.5902286499321849,0.2372037618456999,0.6692134526599127",333,100,172,276,"-0.020427730643879483,0.49026716567376205,-0.3409363637973366",172,"0.09948789533259128,0.47503830359136323,-0.601955130836429",158,305,4.654993099999956
Pri_ET_Study1_6,M,0/0/1900,2022-07-11_15h09.47.792,139,test,Prioritise4,2,square,cross,triangle,circle,"1.0,-0.16655302622891022,0.25673909055504174","0.04661056885000425,0.4151827959781793,0.5366388806382338","0.6287517000804042,0.333230015934751,-1.0","1.0,0.03716450464441401,-1.0",331,238,110,62,"0.6287517000804042,0.333230015934751,-1.0",110,"-0.10032491436032498,0.45768874039972984,0.3817396096664756",222,277,2.704594700000598
Pri_ET_Study1_6,M,0/0/1900,2022-07-11_15h09.47.792,140,test,Prioritise2,2,circle,square,triangle,cross,"1.0,-0.060989074760531836,-1.0","0.12802681261339854,0.47036395437091305,-0.6683938146358337","1.0,-0.223312447401106,0.14042906010430367","0.7123805921607476,0.2995277721370815,-1.0",49,155,340,103,"1.0,-0.223312447401106,0.14042906010430367",340,"-0.1442047673080774,0.4930289775224417,0.010718955352132964",194,207,2.0367441999997027
Pri_ET_Study1_6,M,0/0/1900,2022-07-11_15h09.47.792,141,test,Prioritise1,0,triangle,circle,cross,square,"1.0,-0.12042756170577695,-0.8836340589512358","0.47470490157818523,0.38660875671905104,-1.0","0.5128942075651803,0.26707393527284795,0.6725600501236935","-0.15218698220497417,0.491399065672369,0.0550849709310266",41,123,271,197,"1.0,-0.12042756170577695,-0.8836340589512358",41,"1.0,0.0885108071490186,-1.0",69,303,2.969198900000265
Pri_ET_Study1_6,M,0/0/1900,2022-07-11_15h09.47.792,142,test,Prioritise2,1,triangle,square,cross,circle,"1.0,-0.015267259554568757,0.4762913260168815","0.4981526525436166,0.3791643150394166,-1.0","0.019624625934283157,0.48605247051678724,-0.428609032695351","1.0,-0.2810383691272422,-0.05469022987079308",311,121,167,354,"0.4981526525436166,0.3791643150394166,-1.0",121,"0.35978173682339754,0.41977397962065344,-1.0",133,296,2.5882394000000204
Pri_ET_Study1_6,M,0/0/1900,2022-07-11_15h09.47.792,143,test,Prioritise2,0,square,cross,circle,triangle,"0.30417514509994215,0.43389432139899475,-1.0","-0.14500574250124976,0.47413711311303364,0.2742570559677715","1.0,-0.12344048141961106,0.3289459564990056","1.0,-0.2885749142137033,-0.24639910949319843",138,213,325,7,"0.30417514509994215,0.43389432139899475,-1.0",138,"0.09948789533259128,0.47503830359136323,-0.601955130836429",158,154,3.4386946000004173
Pri_ET_Study1_6,M,0/0/1900,2022-07-11_15h09.47.792,144,test,NoPrioritise,2,triangle,circle,square,cross,"0.41670369996421397,0.40402696808005323,-1.0","1.0,-0.19952917352700617,0.19318579588388318","0.3148218664135791,0.3356097028178475,0.6512264970146455","1.0,0.11693500061052231,-1.0",128,336,258,73,"0.3148218664135791,0.3356097028178475,0.6512264970146455",258,"0.37478692104604905,0.3159453148278393,0.6623940312376342",262,74,3.0735224999998536
Pri_ET_Study1_6,M,0/0/1900,2022-07-11_15h09.47.792,145,test,Prioritise1,1,circle,cross,triangle,square,"1.0,-0.22467733398512213,-0.5303566464837048","0.03656203285471027,0.4839890544285097,-0.46499532916065","0.5283655398475315,0.26125276704655587,0.6724040666408482","1.0,0.08129056571751603,-1.0",25,165,272,68,"0.03656203285471027,0.4839890544285097,-0.46499532916065",165,"0.7428418032534498,0.17196979648312705,0.6434837115546581",286,226,3.005961799999568
Pri_ET_Study1_6,M,0/0/1900,2022-07-11_15h09.47.792,146,test,Prioritise4,1,triangle,cross,circle,square,"1.0,-0.030699357614306977,-1.0","-0.06301515924349677,0.44629443292921844,0.43549282839157066","1.0,-0.25349859092244853,0.058576446168723484","0.6517915958318632,0.21196052870658733,0.661939301509457",53,227,346,280,"-0.06301515924349677,0.44629443292921844,0.43549282839157066",227,"-0.1334211421392112,0.46921826779504494,0.31151742599586085",216,178,2.4609511999997267
Pri_ET_Study1_6,M,0/0/1900,2022-07-11_15h09.47.792,147,test,Prioritise4,3,cross,circle,triangle,square,"1.0,-0.015534070910116049,-1.0","1.0,-0.2897135245148047,-0.23135156862016248","0.5438403016684124,0.25535465854340766,0.6719910833849003","0.2607905457923898,0.44405077031286466,-1.0",55,6,273,142,"0.2607905457923898,0.44405077031286466,-1.0",142,"0.0809641014742315,0.4778728517952051,-0.560834903418019",160,223,2.4556056999999782
Pri_ET_Study1_6,M,0/0/1900,2022-07-11_15h09.47.792,148,test,Prioritise3,2,circle,square,triangle,cross,"0.35968141037855483,0.3209804608831912,0.6599831247203418","1.0,-0.2784883645829067,-0.04031082501765193","0.8771865507724368,0.22170185938115816,-1.0","1.0,-0.10580765013847959,-0.9756165541078137",261,353,89,43,"0.8771865507724368,0.22170185938115816,-1.0",89,"0.7481042841002781,0.28401253410301863,-1.0",100,105,15.54872720000003
Pri_ET_Study1_6,M,0/0/1900,2022-07-11_15h09.47.792,149,test,Prioritise1,0,circle,square,cross,triangle,"0.18759316868675757,0.45946387343509576,-0.8398972692549822","0.002753009035763032,0.42748599986642954,0.5027340537090634","1.0,0.08129056571751603,-1.0","0.6210691465439071,0.22472865664823272,0.6660842894513506",149,234,68,278,"0.18759316868675757,0.45946387343509576,-0.8398972692549822",149,"0.2081252941518954,0.4553611512282272,-0.9356957589344492",147,3,2.263664100000824
Pri_ET_Study1_6,M,0/0/1900,2022-07-11_15h09.47.792,150,test,NoPrioritise,0,cross,triangle,circle,square,"-0.10032491436032498,0.45768874039972984,0.3817396096664756","0.23950483221035568,0.4487573681220651,-1.0","1.0,-0.09100024043058197,-1.0","1.0,-0.29113614091237483,-0.20140827106110581",222,144,45,4,"-0.10032491436032498,0.45768874039972984,0.3817396096664756",222,"0.6517915958318632,0.21196052870658733,0.661939301509457",280,72,1.9369701999994504
Pri_ET_Study1_6,M,0/0/1900,2022-07-11_15h09.47.792,151,test,Prioritise1,1,square,circle,triangle,cross,"1.0,0.0520116041796701,-1.0","0.8744524420551003,0.1077067653533772,0.5993718879433354","0.024156992038590452,0.42147876676365525,0.5201127943356356","-0.004817967995419115,0.4887422579776717,-0.37551595656205394",64,295,236,170,"0.8744524420551003,0.1077067653533772,0.5993718879433354",295,"0.003196340864616065,0.48789947231709707,-0.3930376390559923",169,9,2.095978600000308
Pri_ET_Study1_6,M,0/0/1900,2022-07-11_15h09.47.792,152,test,Prioritise4,0,circle,triangle,square,cross,"0.7127176267031001,0.18557291042394586,0.6506302425082333","0.6168077568629242,0.33775906377670717,-1.0","1.0,-0.11314379054822865,-0.9277147292103822","0.12802681261339854,0.47036395437091305,-0.6683938146358337",284,111,42,155,"0.7127176267031001,0.18557291042394586,0.6506302425082333",284,"0.7428418032534498,0.17196979648312705,0.6434837115546581",286,136,1.6552608000001783
Pri_ET_Study1_6,M,0/0/1900,2022-07-11_15h09.47.792,153,test,Prioritise4,2,circle,triangle,square,cross,"-0.02724900693809007,0.43596400275120595,0.47511170232003863","0.04521328814621106,0.4828757040428189,-0.4835461552047625","0.5335383805596645,0.36747902832868284,-1.0","0.7726890832158932,0.15810653737494773,0.6353563968956581",231,164,118,288,"0.5335383805596645,0.36747902832868284,-1.0",118,"0.18759316868675757,0.45946387343509576,-0.8398972692549822",149,7,1.7063875000003463
Pri_ET_Study1_6,M,0/0/1900,2022-07-11_15h09.47.792,154,test,Prioritise3,0,cross,circle,triangle,square,"1.0,-0.02312336799965975,0.4668836380243213","0.2715377535601935,0.44160513045338035,-1.0","1.0,-0.06852917744512788,-1.0","0.3446475566939091,0.32593623267112437,0.6573177271493604",312,141,48,260,"1.0,-0.02312336799965975,0.4668836380243213",312,"0.7578023835242338,0.165070026077772,0.63954193062201",287,159,1.2238041000000521
Pri_ET_Study1_6,M,0/0/1900,2022-07-11_15h09.47.792,155,test,Prioritise3,1,circle,cross,triangle,square,"0.21370971933434912,0.36697709911931464,0.6220261074603506","1.0,-0.15254529173699993,0.2813312795320311","-0.14097292288545527,0.4934633616179327,-0.004268922352566595","1.0,-0.24976805918886447,-0.4479639557291707",251,329,193,20,"1.0,-0.15254529173699993,0.2813312795320311",329,"1.0,0.031678509722878445,0.528693730626498",305,53,1.4767339999998512
Pri_ET_Study1_6,M,0/0/1900,2022-07-11_15h09.47.792,156,test,Prioritise4,1,triangle,square,circle,cross,"0.38240568475417525,0.4136729392938614,-1.0","1.0,-0.09100024043058197,-1.0","1.0,-0.1308360377071882,0.3172469791017578","-0.07020697204541848,0.49392917223661503,-0.22388609625324785",131,45,326,179,"1.0,-0.09100024043058197,-1.0",45,"0.07186027412725471,0.47920645949573504,-0.5409731165987569",161,286,2.0560428999997384
Pri_ET_Study1_6,M,0/0/1900,2022-07-11_15h09.47.792,157,test,NoPrioritise,0,triangle,cross,square,circle,"0.03525654226328623,0.4183671124064994,0.5284836519992187","1.0,-0.2897135245148047,-0.23135156862016248","0.7481042841002781,0.28401253410301863,-1.0","1.0,0.007155954649565421,-1.0",237,6,100,58,"0.03525654226328623,0.4183671124064994,0.5284836519992187",237,"0.7874973343482177,0.15108074255601633,0.6309286527694675",289,229,2.5184366000003138
Pri_ET_Study1_6,M,0/0/1900,2022-07-11_15h09.47.792,158,test,Prioritise4,1,triangle,square,circle,cross,"-0.13746749759655974,0.49384364036211803,-0.01935357496354817","0.6056610145008174,0.2310032177113197,0.6677762187869551","0.38240568475417525,0.4136729392938614,-1.0","1.0,-0.10086551076024819,0.3631766774585774",192,277,131,322,"0.6056610145008174,0.2310032177113197,0.6677762187869551",277,"0.5902286499321849,0.2372037618456999,0.6692134526599127",276,182,1.77245640000001
Pri_ET_Study1_6,M,0/0/1900,2022-07-11_15h09.47.792,159,test,Prioritise2,3,circle,square,cross,triangle,"0.25011230249462657,0.4464347244570299,-1.0","0.2563330525591274,0.3540064263668754,0.6360281906414551","1.0,-0.2897135245148047,-0.23135156862016248","1.0,-0.05449202187079283,0.427438243059558",143,254,6,316,"1.0,-0.05449202187079283,0.427438243059558",316,"1.0,0.13084904670314157,-1.0",75,87,2.286508199999844
Pri_ET_Study1_6,M,0/0/1900,2022-07-11_15h09.47.792,160,test,NoPrioritise,0,triangle,circle,square,cross,"0.28536486694739915,0.3449661378960809,0.6441272460635925","1.0,-0.27567226916307197,-0.025990342729996674","1.0,-0.007413941176475647,0.4855113905503705","-0.04985376064386149,0.4926777683571715,-0.2733707743273047",256,352,310,176,"0.28536486694739915,0.3449661378960809,0.6441272460635925",256,"0.7874973343482177,0.15108074255601633,0.6309286527694675",289,3,2.5023666000006415
Pri_ET_Study1_6,M,0/0/1900,2022-07-11_15h09.47.792,161,test,Prioritise3,3,circle,square,triangle,cross,"1.0,0.00043266500642058503,0.4945408245860483","0.5691306813430501,0.3551652128948415,-1.0","0.4665589352747248,0.2840716923699367,0.6714844115718321","-0.04985376064386149,0.4926777683571715,-0.2733707743273047",309,115,268,176,"-0.04985376064386149,0.4926777683571715,-0.2733707743273047",176,"-0.04985376064386149,0.4926777683571715,-0.2733707743273047",176,330,2.9055238000000827
Pri_ET_Study1_6,M,0/0/1900,2022-07-11_15h09.47.792,162,test,Prioritise1,3,square,triangle,circle,cross,"0.17237529551869346,0.3792456671279014,0.6058334931269098","0.07186027412725471,0.47920645949573504,-0.5409731165987569","1.0,-0.12344048141961106,0.3289459564990056","1.0,-0.19533700364355222,-0.6185256211936343",248,161,325,30,"1.0,-0.19533700364355222,-0.6185256211936343",30,"1.0,-0.13481497066722903,-0.8172789642511413",39,245,2.605307800000446
Pri_ET_Study1_6,M,0/0/1900,2022-07-11_15h09.47.792,163,test,Prioritise1,0,triangle,square,cross,circle,"1.0,-0.09100024043058197,-1.0","0.23950483221035568,0.4487573681220651,-1.0","0.03525654226328623,0.4183671124064994,0.5284836519992187","1.0,-0.28331765203541326,-0.06912673399707303",45,144,237,355,"1.0,-0.09100024043058197,-1.0",45,"1.0,-0.1558548551326704,-0.7405909184559469",36,270,3.522262999999839
Pri_ET_Study1_6,M,0/0/1900,2022-07-11_15h09.47.792,164,test,Prioritise3,2,square,cross,triangle,circle,"-0.03665861455697994,0.4386499069954206,0.4655003413302212","1.0,-0.21911833444213913,-0.5474132739956148","-0.1160886962144162,0.49493957268076216,-0.09618366371381681","0.5128942075651803,0.26707393527284795,0.6725600501236935",230,26,187,271,"-0.1160886962144162,0.49493957268076216,-0.09618366371381681",187,"-0.15425303278284086,0.49074605836511664,0.06966808771232391",198,343,7.208375299999716
Pri_ET_Study1_6,M,0/0/1900,2022-07-11_15h09.47.792,165,test,NoPrioritise,3,cross,triangle,circle,square,"0.5902286499321849,0.2372037618456999,0.6692134526599127","1.0,0.13084904670314157,-1.0","0.5691306813430501,0.3551652128948415,-1.0","-0.1336957186097738,0.49417000388378884,-0.03453353894846056",276,75,115,191,"-0.1336957186097738,0.49417000388378884,-0.03453353894846056",191,"-0.14981892062729885,0.491997057231198,0.04039774195876733",196,26,1.3555444999992687
Pri_ET_Study1_6,M,0/0/1900,2022-07-11_15h09.47.792,166,test,Prioritise3,2,circle,square,cross,triangle,"1.0,-0.28849207683894174,-0.11276294357485506","-0.1582066093163167,0.48234509352938293,0.19584550247902222","1.0,0.08129056571751603,-1.0","0.984183681480933,0.0471694796759472,0.544551712303033",358,207,68,303,"1.0,0.08129056571751603,-1.0",68,"1.0,0.07402842417913646,-1.0",67,226,1.81120540000029
Pri_ET_Study1_6,M,0/0/1900,2022-07-11_15h09.47.792,167,test,Prioritise4,0,cross,circle,triangle,square,"0.18759316868675757,0.45946387343509576,-0.8398972692549822","1.0,-0.28704790815198966,-0.09816451385922986","-0.06301515924349677,0.44629443292921844,0.43549282839157066","1.0,0.1377261376429495,-1.0",149,357,227,76,"0.18759316868675757,0.45946387343509576,-0.8398972692549822",149,"-0.12538192785381974,0.49466166942996614,-0.0651744334368548",189,119,1.530004199999894
Pri_ET_Study1_6,M,0/0/1900,2022-07-11_15h09.47.792,168,test,Prioritise2,0,triangle,circle,square,cross,"1.0,-0.27259515439613147,-0.011730747350127468","1.0,0.022205290041545256,-1.0","0.024156992038590452,0.42147876676365525,0.5201127943356356","0.8602068900008202,0.11507220116757,0.6052161878467197",351,60,236,294,"1.0,-0.27259515439613147,-0.011730747350127468",351,"0.984183681480933,0.0471694796759472,0.544551712303033",303,208,1.7587783999997555
Pri_ET_Study1_6,M,0/0/1900,2022-07-11_15h09.47.792,169,test,Prioritise4,3,triangle,circle,square,cross,"1.0,-0.176090722701999,-0.6762956704638035","-0.15971287347422924,0.4846106035432911,0.16864202556096686","0.2607905457923898,0.44405077031286466,-1.0","0.7718332302050808,0.2733134055615505,-1.0",33,205,142,98,"0.7718332302050808,0.2733134055615505,-1.0",98,"0.5335383805596645,0.36747902832868284,-1.0",118,139,14.043489599999702
Pri_ET_Study1_6,M,0/0/1900,2022-07-11_15h09.47.792,170,test,NoPrioritise,2,square,circle,triangle,cross,"0.9575099088241161,0.0625393185362546,0.5595685159060846","-0.10032491436032498,0.45768874039972984,0.3817396096664756","1.0,-0.08353952619481586,-1.0","0.2081252941518954,0.4553611512282272,-0.9356957589344492",301,222,46,147,"1.0,-0.08353952619481586,-1.0",46,"0.06286533759988822,0.4804846395944975,-0.5215000541421746",162,105,3.387977299999875
Pri_ET_Study1_6,M,0/0/1900,2022-07-11_15h09.47.792,171,test,Prioritise2,0,circle,cross,triangle,square,"1.0,-0.02312336799965975,0.4668836380243213","1.0,0.11693500061052231,-1.0","0.1377313063497616,0.46869198128419454,-0.6923217342230605","1.0,-0.2810383691272422,-0.05469022987079308",312,73,154,354,"1.0,-0.02312336799965975,0.4668836380243213",312,"1.0,-0.1159761024614836,0.3405028198215041",324,268,3.3914938999996593
Pri_ET_Study1_6,M,0/0/1900,2022-07-11_15h09.47.792,172,test,Prioritise2,0,cross,triangle,square,circle,"1.0,0.07402842417913646,-1.0","1.0,-0.2905679542092485,-0.21635494529981825","1.0,-0.10844910144201803,0.3519141850209708","-0.004817967995419115,0.4887422579776717,-0.37551595656205394",67,5,323,170,"1.0,0.07402842417913646,-1.0",67,"-0.028015013033697245,0.49094955428922593,-0.32385780920023366",173,278,2.522546700000021
Pri_ET_Study1_6,M,0/0/1900,2022-07-11_15h09.47.792,173,test,NoPrioritise,1,square,triangle,circle,cross,"-0.15913672951032076,0.48350679120805196,0.18230705521727808","0.4204673865307198,0.3003640950728248,0.6680936776579738","1.0,-0.15960027999342463,0.2690977661520819","0.854028730639278,0.2336538600688729,-1.0",206,265,330,91,"0.4204673865307198,0.3003640950728248,0.6680936776579738",265,"0.3937919637711427,0.41052389502637143,-1.0",130,285,3.397922799999833
Pri_ET_Study1_6,M,0/0/1900,2022-07-11_15h09.47.792,174,test,Prioritise2,1,triangle,circle,square,cross,"0.09948789533259128,0.47503830359136323,-0.601955130836429","1.0,-0.05449202187079283,0.427438243059558","1.0,-0.22467733398512213,-0.5303566464837048","0.49743207809976986,0.2728177294164349,0.672458831583457",158,316,25,270,"1.0,-0.05449202187079283,0.427438243059558",316,"1.0,-0.10086551076024819,0.3631766774585774",322,138,8.132890599999882
Pri_ET_Study1_6,M,0/0/1900,2022-07-11_15h09.47.792,175,test,Prioritise1,1,cross,triangle,square,circle,"1.0,-0.2352776592018201,-0.4968859262116322","-0.1160886962144162,0.49493957268076216,-0.09618366371381681","0.28536486694739915,0.3449661378960809,0.6441272460635925","1.0,0.1513135807267587,-1.0",23,187,256,78,"-0.1160886962144162,0.49493957268076216,-0.09618366371381681",187,"0.6646065852612066,0.3192149609683923,-1.0",107,125,2.0503185999996276
Pri_ET_Study1_6,M,0/0/1900,2022-07-11_15h09.47.792,176,test,Prioritise3,1,circle,triangle,square,cross,"0.3148218664135791,0.3356097028178475,0.6512264970146455","1.0,0.008268781307839035,0.5033766660072689","1.0,0.12391818455152381,-1.0","1.0,-0.265680167273015,0.01659727634298691",258,308,74,349,"1.0,0.008268781307839035,0.5033766660072689",308,"0.9973143857544444,0.03943765994348003,0.5367265506444097",304,342,2.6645447000000786
Pri_ET_Study1_6,M,0/0/1900,2022-07-11_15h09.47.792,177,test,NoPrioritise,3,square,circle,cross,triangle,"0.9229356114863154,0.19699631777014193,-1.0","-0.1160886962144162,0.49493957268076216,-0.09618366371381681","1.0,-0.2787294505909397,-0.3224626175099854","0.13253781604398185,0.3908200528647623,0.5874938236427092",85,187,12,245,"0.13253781604398185,0.3908200528647623,0.5874938236427092",245,"0.09948789533259128,0.47503830359136323,-0.601955130836429",158,113,1.1394965999998021
Pri_ET_Study1_6,M,0/0/1900,2022-07-11_15h09.47.792,178,test,Prioritise4,3,circle,square,cross,triangle,"1.0,-0.29113614091237483,-0.20140827106110581","1.0,-0.09100024043058197,-1.0","1.0,0.031678509722878445,0.528693730626498","0.45139045294854396,0.393779284417197,-1.0",4,45,305,125,"0.45139045294854396,0.393779284417197,-1.0",125,"-0.1160886962144162,0.49493957268076216,-0.09618366371381681",187,339,7.090135500000542
Pri_ET_Study1_6,M,0/0/1900,2022-07-11_15h09.47.792,179,test,Prioritise3,1,cross,circle,triangle,square,"-0.11280811015512238,0.4617870748317987,0.35899735609320693","0.8072476110492377,0.25673500061136667,-1.0","1.0,-0.0855518419522695,0.38524161028667625","1.0,-0.2133971103908915,-0.5647212078646006",220,95,320,27,"0.8072476110492377,0.25673500061136667,-1.0",95,"0.8189948021797893,0.2510686603392729,-1.0",94,185,2.7206111000004967
Pri_ET_Study1_6,M,0/0/1900,2022-07-11_15h09.47.792,180,test,NoPrioritise,0,triangle,circle,cross,square,"-0.1481252589400609,0.4756545429797898,0.26153874370652797","1.0,-0.2117453636986133,0.16700499532847024","0.5453823652594301,0.36344457638027117,-1.0","1.0,0.06672643376273091,-1.0",212,338,117,66,"-0.1481252589400609,0.4756545429797898,0.26153874370652797",212,"-0.07020697204541848,0.49392917223661503,-0.22388609625324785",179,84,2.855007199999818
Pri_ET_Study1_6,M,0/0/1900,2022-07-11_15h09.47.792,181,test,Prioritise4,3,cross,circle,square,triangle,"0.40522526965537775,0.4073086888830977,-1.0","-0.10674528321075638,0.4597702151299572,0.3704541436797111","1.0,-0.2583995670372059,-0.4160170008955538","0.5747774279545166,0.24332959852807035,0.670395358395977",129,221,18,275,"0.5747774279545166,0.24332959852807035,0.670395358395977",275,"0.4051864188365102,0.30563705046778256,0.6664498358678796",264,356,1.8721604000002117
Pri_ET_Study1_6,M,0/0/1900,2022-07-11_15h09.47.792,182,test,Prioritise3,2,cross,circle,triangle,square,"0.04661056885000425,0.4151827959781793,0.5366388806382338","1.0,-0.10580765013847959,-0.9756165541078137","0.7123805921607476,0.2995277721370815,-1.0","1.0,-0.0855518419522695,0.38524161028667625",238,43,103,320,"0.7123805921607476,0.2995277721370815,-1.0",103,"0.8072476110492377,0.25673500061136667,-1.0",95,20,2.856845400000566
Pri_ET_Study1_6,M,0/0/1900,2022-07-11_15h09.47.792,183,test,Prioritise1,3,cross,square,circle,triangle,"0.38240568475417525,0.4136729392938614,-1.0","-0.14097292288545527,0.4934633616179327,-0.004268922352566595","0.6364477477613335,0.21838082541010184,0.6641383826852352","0.9566713411825642,0.17778746275501622,-1.0",131,193,279,82,"0.9566713411825642,0.17778746275501622,-1.0",82,"1.0,0.1513135807267587,-1.0",78,76,5.663582999999562
Pri_ET_Study1_6,M,0/0/1900,2022-07-11_15h09.47.792,184,test,Prioritise4,2,circle,cross,square,triangle,"1.0,0.13084904670314157,-1.0","-0.15425303278284086,0.49074605836511664,0.06966808771232391","0.10890282843090082,0.4735368131811257,-0.6233623294930688","0.17237529551869346,0.3792456671279014,0.6058334931269098",75,198,157,248,"0.10890282843090082,0.4735368131811257,-0.6233623294930688",157,"0.011345098196205106,0.4870029319956142,-0.41073039696963887",168,308,2.357067899998583
Pri_ET_Study1_6,M,0/0/1900,2022-07-11_15h09.47.792,185,test,Prioritise3,0,triangle,cross,circle,square,"1.0,-0.15960027999342463,0.2690977661520819","-0.06301515924349677,0.44629443292921844,0.43549282839157066","0.557247182986663,0.35934004439537626,-1.0","1.0,-0.2583995670372059,-0.4160170008955538",330,227,116,18,"1.0,-0.15960027999342463,0.2690977661520819",330,"0.9973143857544444,0.03943765994348003,0.5367265506444097",304,147,2.327693299999737
Pri_ET_Study1_6,M,0/0/1900,2022-07-11_15h09.47.792,186,test,Prioritise2,1,square,circle,cross,triangle,"0.43579397082986615,0.29501209376045523,0.6694809165992386","0.41670369996421397,0.40402696808005323,-1.0","1.0,0.11693500061052231,-1.0","-0.12085421394465079,0.49482727509491764,-0.08063336981743141",266,128,73,188,"0.41670369996421397,0.40402696808005323,-1.0",128,"1.0,0.1377261376429495,-1.0",76,141,2.5949088000015763
Pri_ET_Study1_6,M,0/0/1900,2022-07-11_15h09.47.792,187,test,Prioritise3,0,square,circle,triangle,cross,"0.002753009035763032,0.42748599986642954,0.5027340537090634","1.0,-0.26238457869240295,-0.4002073564444957","0.10890282843090082,0.4735368131811257,-0.6233623294930688","1.0,0.09568719202827336,-1.0",234,17,157,70,"0.002753009035763032,0.42748599986642954,0.5027340537090634",234,"0.6517915958318632,0.21196052870658733,0.661939301509457",280,342,2.0044845000011264
Pri_ET_Study1_6,M,0/0/1900,2022-07-11_15h09.47.792,188,test,Prioritise3,2,cross,circle,triangle,square,"1.0,-0.27259515439613147,-0.011730747350127468","0.28536486694739915,0.3449661378960809,0.6441272460635925","-0.04985376064386149,0.4926777683571715,-0.2733707743273047","0.8423878648894922,0.2395276862660105,-1.0",351,256,176,92,"-0.04985376064386149,0.4926777683571715,-0.2733707743273047",176,"0.5128942075651803,0.26707393527284795,0.6725600501236935",271,315,1.596615100001145
Pri_ET_Study1_6,M,0/0/1900,2022-07-11_15h09.47.792,189,test,Prioritise4,3,square,circle,triangle,cross,"1.0,-0.19952917352700617,0.19318579588388318","0.9342399836420399,0.1906568045828605,-1.0","-0.1598212484830719,0.4866460428277808,0.1409432704458322","0.40522526965537775,0.4073086888830977,-1.0",336,84,203,129,"0.40522526965537775,0.4073086888830977,-1.0",129,"-0.14981892062729885,0.491997057231198,0.04039774195876733",196,281,2.4735725999998976
Pri_ET_Study1_6,M,0/0/1900,2022-07-11_15h09.47.792,190,test,Prioritise4,0,circle,triangle,square,cross,"1.0,-0.28331765203541326,-0.06912673399707303","0.3000437839717358,0.34032750492681907,0.6478023910819077","1.0,0.14454808295369936,-1.0","-0.1334211421392112,0.46921826779504494,0.31151742599586085",355,257,77,216,"1.0,-0.28331765203541326,-0.06912673399707303",355,"1.0,-0.291416597096681,-0.18651092035548889",3,265,8.694570199999362
Pri_ET_Study1_6,M,0/0/1900,2022-07-11_15h09.47.792,191,test,Prioritise3,2,circle,square,cross,triangle,"1.0,-0.20149881210311282,-0.6002331830476271","0.7718332302050808,0.2733134055615505,-1.0","0.1456375685133382,0.387038501124352,0.5938426811268567","0.8168605703912253,0.13684827598857496,0.6213530935889016",29,98,246,291,"0.1456375685133382,0.387038501124352,0.5938426811268567",246,"0.013319861281873457,0.4245182348375207,0.5115287599103473",235,265,5.288372299999537
Pri_ET_Study1_6,M,0/0/1900,2022-07-11_15h09.47.792,192,test,Prioritise3,3,square,cross,circle,triangle,"1.0,0.14454808295369936,-1.0","0.8022226392771252,0.14399413187212562,0.6262603189685363","1.0,-0.20752138035248524,-0.5823144238115788","-0.14500574250124976,0.47413711311303364,0.2742570559677715",77,290,28,213,"-0.14500574250124976,0.47413711311303364,0.2742570559677715",213,"0.06286533759988822,0.4804846395944975,-0.5215000541421746",162,249,1.8772805000007793
Pri_ET_Study1_6,M,0/0/1900,2022-07-11_15h09.47.792,193,test,NoPrioritise,1,cross,square,circle,triangle,"-0.020427730643879483,0.49026716567376205,-0.3409363637973366","0.9303101871846857,0.07776559495072588,0.5737236459068971","-0.045760705841983884,0.4412666063320212,0.45569155140365925","1.0,-0.2810383691272422,-0.05469022987079308",172,299,229,354,"0.9303101871846857,0.07776559495072588,0.5737236459068971",299,"0.9575099088241161,0.0625393185362546,0.5595685159060846",301,101,1.4747979999992822
Pri_ET_Study1_6,M,0/0/1900,2022-07-11_15h09.47.792,194,test,Prioritise3,0,square,circle,triangle,cross,"0.17237529551869346,0.3792456671279014,0.6058334931269098","0.04521328814621106,0.4828757040428189,-0.4835461552047625","1.0,-0.2288330890480459,0.12700076968242469","0.8602068900008202,0.11507220116757,0.6052161878467197",248,164,341,294,"0.17237529551869346,0.3792456671279014,0.6058334931269098",248,"0.7362113369355152,0.2892555466706437,-1.0",101,139,2.3429829999986396
Pri_ET_Study1_6,M,0/0/1900,2022-07-11_15h09.47.792,195,test,Prioritise1,2,triangle,circle,cross,square,"1.0,-0.18672585607811187,0.21894575397790916","-0.1415152911985038,0.4725588943334964,0.2868282896334675","1.0,-0.13481497066722903,-0.8172789642511413","0.19781922438295352,0.4574422518266765,-0.8818361039644314",334,214,39,148,"1.0,-0.13481497066722903,-0.8172789642511413",39,"-0.04273264564935253,0.4921547641531523,-0.29008164886068233",175,255,3.0576232000003074
Pri_ET_Study1_6,M,0/0/1900,2022-07-11_15h09.47.792,196,test,Prioritise4,1,circle,square,cross,triangle,"1.0,0.01469043779870538,-1.0","-0.0864279937772866,0.4533299305616785,0.40378459741649797","0.30417514509994215,0.43389432139899475,-1.0","1.0,-0.16655302622891022,0.25673909055504174",59,224,138,331,"-0.0864279937772866,0.4533299305616785,0.40378459741649797",224,"-0.028015013033697245,0.49094955428922593,-0.32385780920023366",173,122,2.730181700000685
Pri_ET_Study1_6,M,0/0/1900,2022-07-11_15h09.47.792,197,test,NoPrioritise,2,circle,cross,square,triangle,"1.0,-0.1159761024614836,0.3405028198215041","0.4282253351913974,0.40067838587068505,-1.0","1.0,-0.18262560807777894,-0.6564771422547051","0.3000437839717358,0.34032750492681907,0.6478023910819077",324,127,32,257,"1.0,-0.18262560807777894,-0.6564771422547051",32,"1.0,-0.045861603138592444,-1.0",51,79,3.201973299999736
Pri_ET_Study1_6,M,0/0/1900,2022-07-11_15h09.47.792,198,test,NoPrioritise,0,square,triangle,circle,cross,"0.15741439024530024,0.4651753747362595,-0.7441898531558468","1.0,-0.12765325079304635,-0.8480385611780058","1.0,-0.2288330890480459,0.12700076968242469","0.35968141037855483,0.3209804608831912,0.6599831247203418",152,40,341,261,"0.15741439024530024,0.4651753747362595,-0.7441898531558468",152,"-0.05680994196765965,0.4931478034098584,-0.2567707460520542",177,179,1.5551073999995424
Pri_ET_Study1_6,M,0/0/1900,2022-07-11_15h09.47.792,199,test,Prioritise3,2,cross,square,circle,triangle,"0.3000437839717358,0.34032750492681907,0.6478023910819077","-0.15601024525342333,0.4900377710624384,0.08414494382818494","1.0,-0.04666697700988032,0.4375655321668761","1.0,-0.176090722701999,-0.6762956704638035",257,199,315,33,"1.0,-0.04666697700988032,0.4375655321668761",315,"1.0,-0.04666697700988032,0.4375655321668761",315,70,3.0714552999997977
Pri_ET_Study1_6,M,0/0/1900,2022-07-11_15h09.47.792,200,test,Prioritise3,1,cross,circle,square,triangle,"1.0,-0.24976805918886447,-0.4479639557291707","0.9229356114863154,0.19699631777014193,-1.0","0.2277843781848521,0.3627318956570289,0.6269388339435948","-0.15936350859590664,0.487578374203653,0.1269149288768463",20,85,252,202,"0.9229356114863154,0.19699631777014193,-1.0",85,"1.0,0.05938674364207741,-1.0",65,243,1.656307499999457
Pri_ET_Study1_6,M,0/0/1900,2022-07-11_15h09.47.792,201,test,NoPrioritise,3,cross,triangle,square,circle,"0.9677931896988998,0.1712594071065523,-1.0","0.25011230249462657,0.4464347244570299,-1.0","-0.12966480223349675,0.49444262706220066,-0.04980752507879116","1.0,-0.23416809090988489,0.11348302116348141",81,143,190,342,"1.0,-0.23416809090988489,0.11348302116348141",342,"1.0,0.10990102188412854,-1.0",72,54,2.059494499999346
Pri_ET_Study1_6,M,0/0/1900,2022-07-11_15h09.47.792,202,test,Prioritise1,3,square,cross,triangle,circle,"0.6407010103455535,0.32862970770224886,-1.0","-0.028015013033697245,0.49094955428922593,-0.32385780920023366","1.0,-0.09842467873037941,-1.0","1.0,-0.007413941176475647,0.4855113905503705",109,173,44,310,"1.0,-0.007413941176475647,0.4855113905503705",310,"1.0,-0.05449202187079283,0.427438243059558",316,314,1.125113500000225
Pri_ET_Study1_6,M,0/0/1900,2022-07-11_15h09.47.792,203,test,Prioritise1,1,square,circle,cross,triangle,"0.8744524420551003,0.1077067653533772,0.5993718879433354","0.18759316868675757,0.45946387343509576,-0.8398972692549822","1.0,0.07402842417913646,-1.0","1.0,-0.24513616553833184,-0.4641238358039159",295,149,67,21,"0.18759316868675757,0.45946387343509576,-0.8398972692549822",149,"0.04521328814621106,0.4828757040428189,-0.4835461552047625",164,262,1.4537908000002062
Pri_ET_Study1_6,M,0/0/1900,2022-07-11_15h09.47.792,204,test,Prioritise2,1,cross,circle,square,triangle,"0.3373683384989987,0.425614728337375,-1.0","1.0,-0.06852917744512788,-1.0","1.0,-0.21761393967782516,0.1537648375256555","-0.137653653553384,0.47091943313012696,0.2992494234533911",135,48,339,215,"1.0,-0.06852917744512788,-1.0",48,"1.0,-0.045861603138592444,-1.0",51,184,1.3366430999994918
Pri_ET_Study1_6,M,0/0/1900,2022-07-11_15h09.47.792,205,test,Prioritise4,0,triangle,cross,circle,square,"-0.15325530146069954,0.47850880592239364,0.23567289266690317","1.0,-0.22467733398512213,-0.5303566464837048","0.5691306813430501,0.3551652128948415,-1.0","1.0,-0.015267259554568757,0.4762913260168815",210,25,115,311,"-0.15325530146069954,0.47850880592239364,0.23567289266690317",210,"0.04521328814621106,0.4828757040428189,-0.4835461552047625",164,322,1.4748434000011912
Pri_ET_Study1_6,M,0/0/1900,2022-07-11_15h09.47.792,206,test,Prioritise4,0,circle,triangle,square,cross,"0.41670369996421397,0.40402696808005323,-1.0","0.9229356114863154,0.19699631777014193,-1.0","-0.1442047673080774,0.4930289775224417,0.010718955352132964","1.0,0.023895135487088437,0.520455959599228",128,85,194,306,"0.41670369996421397,0.40402696808005323,-1.0",128,"0.09017416231209929,0.4764835565228893,-0.581140049938324",159,317,1.725814999999784
Pri_ET_Study1_6,M,0/0/1900,2022-07-11_15h09.47.792,207,test,NoPrioritise,2,triangle,square,circle,cross,"0.41670369996421397,0.40402696808005323,-1.0","0.8458569493622168,0.12238552790175761,0.6108291411981881","1.0,0.09568719202827336,-1.0","0.002753009035763032,0.42748599986642954,0.5027340537090634",128,293,70,234,"1.0,0.09568719202827336,-1.0",70,"0.011345098196205106,0.4870029319956142,-0.41073039696963887",168,220,1.2062205000001995
Pri_ET_Study1_6,M,0/0/1900,2022-07-11_15h09.47.792,208,test,Prioritise2,3,circle,square,cross,triangle,"0.6670955436242052,0.20546863097446266,0.6594879335101997","1.0,-0.2897135245148047,-0.23135156862016248","0.28235212283095645,0.4390974279014652,-1.0","1.0,0.0885108071490186,-1.0",281,6,140,69,"1.0,0.0885108071490186,-1.0",69,"0.0809641014742315,0.4778728517952051,-0.560834903418019",160,27,1.2518574999994598
Pri_ET_Study1_6,M,0/0/1900,2022-07-11_15h09.47.792,209,test,NoPrioritise,0,square,triangle,circle,cross,"0.21850949126575658,0.4532202130288874,-0.9933869065076532","1.0,-0.10844910144201803,0.3519141850209708","0.10691635848548953,0.39815526341168916,0.5740986907036785","1.0,-0.06852917744512788,-1.0",146,323,243,48,"0.21850949126575658,0.4532202130288874,-0.9933869065076532",146,"0.14752787305018233,0.4669625621869047,-0.7174796825499677",153,296,1.1141158000009455
Pri_ET_Study1_6,M,0/0/1900,2022-07-11_15h09.47.792,210,test,NoPrioritise,0,circle,square,cross,triangle,"1.0,-0.1558548551326704,-0.7405909184559469","1.0,-0.06229796743051119,0.4171389626044979","0.04661056885000425,0.4151827959781793,0.5366388806382338","0.019624625934283157,0.48605247051678724,-0.428609032695351",36,317,238,167,"1.0,-0.1558548551326704,-0.7405909184559469",36,"-0.03545149328753128,0.4915787209123279,-0.3069086161051545",174,34,3.2821738999991794
Pri_ET_Study1_6,M,0/0/1900,2022-07-11_15h09.47.792,211,test,Prioritise1,2,triangle,cross,square,circle,"1.0,-0.1694459751095364,-0.6968170409133772","0.22896995211020998,0.45101907426419996,-1.0","1.0,-0.25779156666188097,0.04465505589445962","-0.0864279937772866,0.4533299305616785,0.40378459741649797",34,145,347,224,"1.0,-0.25779156666188097,0.04465505589445962",347,"-0.045760705841983884,0.4412666063320212,0.45569155140365925",229,359,3.0612770000007004
Pri_ET_Study1_6,M,0/0/1900,2022-07-11_15h09.47.792,212,test,Prioritise2,3,triangle,circle,square,cross,"0.7123805921607476,0.2995277721370815,-1.0","1.0,-0.2692625012388049,0.0024658652101630096","1.0,-0.12765325079304635,-0.8480385611780058","-0.14097292288545527,0.4934633616179327,-0.004268922352566595",103,350,40,193,"-0.14097292288545527,0.4934633616179327,-0.004268922352566595",193,"0.6646065852612066,0.3192149609683923,-1.0",107,358,1.7365671000006841
Pri_ET_Study1_6,M,0/0/1900,2022-07-11_15h09.47.792,213,test,Prioritise4,3,circle,cross,square,triangle,"0.1774490411200258,0.4614263698132157,-0.8044096137074778","0.6056610145008174,0.2310032177113197,0.6677762187869551","-0.02724900693809007,0.43596400275120595,0.47511170232003863","0.911575527904773,0.20327130372654878,-1.0",150,277,231,86,"0.911575527904773,0.20327130372654878,-1.0",86,"0.8189948021797893,0.2510686603392729,-1.0",94,284,2.0427452999992965
