id,gender,dob,date,n_trial,test_stage,condition,tested_position,shape_0,shape_1,shape_2,shape_3,color_0,color_1,color_2,color_3,color_angle_0,color_angle_1,color_angle_2,color_angle_3,correct_response,correct_response_angle,response,response_angle,wheel_rotation,reaction_time
Pri_ET_Study1_5,M,0/0/1900,2022-07-11_13h49.44.662,1,practice_pri,Prioritise3,3,cross,square,triangle,circle,"0.2081252941518954,0.4553611512282272,-0.9356957589344492","1.0,-0.2692625012388049,0.0024658652101630096","1.0,-0.1694459751095364,-0.6968170409133772","0.6517915958318632,0.21196052870658733,0.661939301509457",147,350,34,280,"0.6517915958318632,0.21196052870658733,0.661939301509457",280,"-0.05454842094763246,0.44381461100324726,0.4456881091586087",228,85,16.095808300000044
Pri_ET_Study1_5,M,0/0/1900,2022-07-11_13h49.44.662,2,practice_pri,NoPrioritise,1,cross,circle,square,triangle,"0.7243026375027783,0.2944273290124073,-1.0","1.0,-0.19319706407583936,0.20612000948251996","0.8314067698500829,0.129644828397681,0.6162087510840306","1.0,-0.03828278687151976,-1.0",102,335,292,52,"1.0,-0.19319706407583936,0.20612000948251996",335,"1.0,-0.12042756170577695,-0.8836340589512358",41,62,8.281602899999996
Pri_ET_Study1_5,M,0/0/1900,2022-07-11_13h49.44.662,3,practice_pri,Prioritise1,0,triangle,cross,circle,square,"0.38240568475417525,0.4136729392938614,-1.0","1.0,-0.07783297952557244,0.3960373748090056","-0.07115460775268467,0.4487065849390661,0.42510855757080535","-0.020427730643879483,0.49026716567376205,-0.3409363637973366",131,319,226,172,"0.38240568475417525,0.4136729392938614,-1.0",131,"0.011345098196205106,0.4870029319956142,-0.41073039696963887",168,153,5.032446200000038
Pri_ET_Study1_5,M,0/0/1900,2022-07-11_13h49.44.662,4,practice_pri,Prioritise2,3,triangle,circle,cross,square,"1.0,-0.28331765203541326,-0.06912673399707303","1.0,0.01469043779870538,-1.0","0.37478692104604905,0.3159453148278393,0.6623940312376342","0.30417514509994215,0.43389432139899475,-1.0",355,59,262,138,"0.30417514509994215,0.43389432139899475,-1.0",138,"1.0,-0.2787294505909397,-0.3224626175099854",12,297,4.1800163999999995
Pri_ET_Study1_5,M,0/0/1900,2022-07-11_13h49.44.662,5,practice_pri,Prioritise4,1,circle,square,cross,triangle,"1.0,-0.12042756170577695,-0.8836340589512358","0.28536486694739915,0.3449661378960809,0.6441272460635925","0.9229356114863154,0.19699631777014193,-1.0","-0.1334211421392112,0.46921826779504494,0.31151742599586085",41,256,85,216,"0.28536486694739915,0.3449661378960809,0.6441272460635925",256,"0.4204673865307198,0.3003640950728248,0.6680936776579738",265,33,2.8186128000000394
Pri_ET_Study1_5,M,0/0/1900,2022-07-11_13h49.44.662,1,test,Prioritise3,0,cross,circle,square,triangle,"-0.0864279937772866,0.4533299305616785,0.40378459741649797","1.0,-0.19952917352700617,0.19318579588388318","0.8771865507724368,0.22170185938115816,-1.0","0.25011230249462657,0.4464347244570299,-1.0",224,336,89,143,"-0.0864279937772866,0.4533299305616785,0.40378459741649797",224,"-0.11850987372908683,0.4637398184337027,0.34737226103556385",219,161,2.063907400000005
Pri_ET_Study1_5,M,0/0/1900,2022-07-11_13h49.44.662,2,test,NoPrioritise,2,cross,square,triangle,circle,"1.0,-0.030978196634575572,0.4572913763932509","-0.15601024525342333,0.4900377710624384,0.08414494382818494","1.0,-0.1694459751095364,-0.6968170409133772","1.0,0.12391818455152381,-1.0",313,199,34,74,"1.0,-0.1694459751095364,-0.6968170409133772",34,"0.8656291340184048,0.2277117481201254,-1.0",90,279,2.718253500000003
Pri_ET_Study1_5,M,0/0/1900,2022-07-11_13h49.44.662,3,test,Prioritise2,1,triangle,circle,square,cross,"0.6646065852612066,0.3192149609683923,-1.0","-0.10043403746491275,0.49495767021285575,-0.14337977127983403","0.35968141037855483,0.3209804608831912,0.6599831247203418","1.0,-0.0855518419522695,0.38524161028667625",107,184,261,320,"-0.10043403746491275,0.49495767021285575,-0.14337977127983403",184,"-0.07663707943429687,0.49424057193593485,-0.2075945922293636",180,353,3.67424010000002
Pri_ET_Study1_5,M,0/0/1900,2022-07-11_13h49.44.662,4,test,NoPrioritise,2,circle,triangle,cross,square,"0.1377313063497616,0.46869198128419454,-0.6923217342230605","0.8423878648894922,0.2395276862660105,-1.0","0.35968141037855483,0.3209804608831912,0.6599831247203418","1.0,-0.06852917744512788,-1.0",154,92,261,48,"0.35968141037855483,0.3209804608831912,0.6599831247203418",261,"0.38995744222104256,0.31083082350540914,0.6645497918058341",263,197,3.5786514000000125
Pri_ET_Study1_5,M,0/0/1900,2022-07-11_13h49.44.662,5,test,NoPrioritise,2,circle,square,cross,triangle,"-0.07020697204541848,0.49392917223661503,-0.22388609625324785","0.8189948021797893,0.2510686603392729,-1.0","-0.10674528321075638,0.4597702151299572,0.3704541436797111","1.0,-0.28715474606071,-0.26149890951485844",179,94,221,8,"-0.10674528321075638,0.4597702151299572,0.3704541436797111",221,"0.09441071644993415,0.40170970408167506,0.5670564126145141",242,148,2.116391300000032
Pri_ET_Study1_5,M,0/0/1900,2022-07-11_13h49.44.662,6,test,NoPrioritise,2,triangle,cross,square,circle,"-0.14097292288545527,0.4934633616179327,-0.004268922352566595","0.5902286499321849,0.2372037618456999,0.6692134526599127","0.7599790593392,0.278698430329378,-1.0","1.0,-0.20149881210311282,-0.6002331830476271",193,276,99,29,"0.7599790593392,0.278698430329378,-1.0",99,"0.03525654226328623,0.4183671124064994,0.5284836519992187",237,164,6.2726076999999805
Pri_ET_Study1_5,M,0/0/1900,2022-07-11_13h49.44.662,7,test,NoPrioritise,1,circle,square,triangle,cross,"0.4665589352747248,0.2840716923699367,0.6714844115718321","0.9788490541088481,0.1646703741338249,-1.0","0.4981526525436166,0.3791643150394166,-1.0","1.0,-0.030978196634575572,0.4572913763932509",268,80,121,313,"0.9788490541088481,0.1646703741338249,-1.0",80,"1.0,-0.25349859092244853,0.058576446168723484",346,81,6.4075602000000345
Pri_ET_Study1_5,M,0/0/1900,2022-07-11_13h49.44.662,8,test,Prioritise4,0,triangle,square,circle,cross,"-0.02724900693809007,0.43596400275120595,0.47511170232003863","0.9454860823634645,0.18425356693025585,-1.0","0.011345098196205106,0.4870029319956142,-0.41073039696963887","0.6670955436242052,0.20546863097446266,0.6594879335101997",231,83,168,281,"-0.02724900693809007,0.43596400275120595,0.47511170232003863",231,"0.6526534052453359,0.32395804637990677,-1.0",108,66,3.8581100000000106
Pri_ET_Study1_5,M,0/0/1900,2022-07-11_13h49.44.662,9,test,Prioritise3,2,circle,triangle,cross,square,"0.3373683384989987,0.425614728337375,-1.0","-0.11280811015512238,0.4617870748317987,0.35899735609320693","0.8602068900008202,0.11507220116757,0.6052161878467197","1.0,-0.20571451687417974,0.18014638001872707",135,220,294,337,"0.8602068900008202,0.11507220116757,0.6052161878467197",294,"0.7726890832158932,0.15810653737494773,0.6353563968956581",288,205,2.0596775000000207
Pri_ET_Study1_5,M,0/0/1900,2022-07-11_13h49.44.662,10,test,Prioritise1,0,circle,square,cross,triangle,"0.2081252941518954,0.4553611512282272,-0.9356957589344492","1.0,-0.28715474606071,-0.26149890951485844","0.4665589352747248,0.2840716923699367,0.6714844115718321","1.0,-0.04666697700988032,0.4375655321668761",147,8,268,315,"0.2081252941518954,0.4553611512282272,-0.9356957589344492",147,"0.09017416231209929,0.4764835565228893,-0.581140049938324",159,200,7.558699899999965
Pri_ET_Study1_5,M,0/0/1900,2022-07-11_13h49.44.662,11,test,Prioritise1,0,square,circle,cross,triangle,"-0.15745197328482874,0.48927392525561153,0.09851328502402845","0.0809641014742315,0.4778728517952051,-0.560834903418019","0.6287517000804042,0.333230015934751,-1.0","1.0,-0.16269839246793216,-0.7181852224820324",200,160,110,35,"-0.15745197328482874,0.48927392525561153,0.09851328502402845",200,"-0.1160886962144162,0.49493957268076216,-0.09618366371381681",187,190,2.3103932000000214
Pri_ET_Study1_5,M,0/0/1900,2022-07-11_13h49.44.662,12,test,NoPrioritise,3,triangle,cross,square,circle,"1.0,-0.23416809090988489,0.11348302116348141","0.6517915958318632,0.21196052870658733,0.661939301509457","1.0,-0.23006636068103248,-0.5135224369802548","0.1377313063497616,0.46869198128419454,-0.6923217342230605",342,280,24,154,"0.1377313063497616,0.46869198128419454,-0.6923217342230605",154,"-0.01269399205840449,0.48953144240138324,-0.3581525544909092",171,118,6.378197600000021
Pri_ET_Study1_5,M,0/0/1900,2022-07-11_13h49.44.662,13,test,Prioritise4,1,square,triangle,circle,cross,"0.12802681261339854,0.47036395437091305,-0.6683938146358337","1.0,0.10990102188412854,-1.0","0.9165223056430671,0.08531838961047389,0.5804719469242157","0.058211064666331636,0.41192535001918484,0.5445760826660213",155,72,298,239,"1.0,0.10990102188412854,-1.0",72,"1.0,-0.14190666083918357,-0.7896703829265752",38,124,2.8417089999999234
Pri_ET_Study1_5,M,0/0/1900,2022-07-11_13h49.44.662,14,test,Prioritise4,0,square,cross,triangle,circle,"1.0,-0.1694459751095364,-0.6968170409133772","0.8022226392771252,0.14399413187212562,0.6262603189685363","-0.1334211421392112,0.46921826779504494,0.31151742599586085","0.2607905457923898,0.44405077031286466,-1.0",34,290,216,142,"1.0,-0.1694459751095364,-0.6968170409133772",34,"0.28536486694739915,0.3449661378960809,0.6441272460635925",256,247,4.653332299999988
Pri_ET_Study1_5,M,0/0/1900,2022-07-11_13h49.44.662,15,test,Prioritise3,1,cross,circle,triangle,square,"0.37106831880418345,0.41675617985472035,-1.0","0.5283655398475315,0.26125276704655587,0.6724040666408482","-0.1415152911985038,0.4725588943334964,0.2868282896334675","1.0,0.1513135807267587,-1.0",132,272,214,78,"0.5283655398475315,0.26125276704655587,0.6724040666408482",272,"-0.11109230792064029,0.494998675286374,-0.11182488810932678",186,193,5.9934972999999445
Pri_ET_Study1_5,M,0/0/1900,2022-07-11_13h49.44.662,16,test,NoPrioritise,1,cross,triangle,circle,square,"1.0,-0.19533700364355222,-0.6185256211936343","-0.15601024525342333,0.4900377710624384,0.08414494382818494","0.10890282843090082,0.4735368131811257,-0.6233623294930688","0.6646065852612066,0.3192149609683923,-1.0",30,199,157,107,"-0.15601024525342333,0.4900377710624384,0.08414494382818494",199,"-0.12085421394465079,0.49482727509491764,-0.08063336981743141",188,244,3.846762500000068
Pri_ET_Study1_5,M,0/0/1900,2022-07-11_13h49.44.662,17,test,Prioritise2,2,triangle,circle,square,cross,"0.9342399836420399,0.1906568045828605,-1.0","0.37478692104604905,0.3159453148278393,0.6623940312376342","1.0,-0.266139671692747,-0.3844942650329082","-0.020427730643879483,0.49026716567376205,-0.3409363637973366",84,262,16,172,"1.0,-0.266139671692747,-0.3844942650329082",16,"0.9566713411825642,0.17778746275501622,-1.0",82,39,3.2580712999999832
Pri_ET_Study1_5,M,0/0/1900,2022-07-11_13h49.44.662,18,test,Prioritise2,2,circle,triangle,cross,square,"0.04661056885000425,0.4151827959781793,0.5366388806382338","-0.08288077159008311,0.49449913405181634,-0.1914000323192474","1.0,-0.10580765013847959,-0.9756165541078137","1.0,-0.13815640460244194,0.305409278040333",238,181,43,327,"1.0,-0.10580765013847959,-0.9756165541078137",43,"0.9026141269879491,0.09282770385166228,0.5869975937203944",297,170,2.4915256000000454
Pri_ET_Study1_5,M,0/0/1900,2022-07-11_13h49.44.662,19,test,Prioritise2,3,circle,cross,triangle,square,"0.3373683384989987,0.425614728337375,-1.0","1.0,-0.18904346603826983,-0.637249894721835","1.0,-0.15254529173699993,0.2813312795320311","-0.15425303278284086,0.49074605836511664,0.06966808771232391",135,31,329,198,"-0.15425303278284086,0.49074605836511664,0.06966808771232391",198,"0.05398205218015839,0.48170764156945833,-0.5023703861935837",163,145,3.6314628000000084
Pri_ET_Study1_5,M,0/0/1900,2022-07-11_13h49.44.662,20,test,Prioritise3,1,triangle,square,circle,cross,"-0.07020697204541848,0.49392917223661503,-0.22388609625324785","1.0,-0.16269839246793216,-0.7181852224820324","1.0,-0.007413941176475647,0.4855113905503705","0.9788490541088481,0.1646703741338249,-1.0",179,35,310,80,"1.0,-0.16269839246793216,-0.7181852224820324",35,"-0.10043403746491275,0.49495767021285575,-0.14337977127983403",184,266,4.339758999999958
Pri_ET_Study1_5,M,0/0/1900,2022-07-11_13h49.44.662,21,test,Prioritise2,3,circle,triangle,square,cross,"0.4397882380638529,0.39726260220805054,-1.0","1.0,-0.16655302622891022,0.25673909055504174","1.0,0.1377261376429495,-1.0","1.0,-0.2583995670372059,-0.4160170008955538",126,331,76,18,"1.0,-0.2583995670372059,-0.4160170008955538",18,"1.0,-0.03828278687151976,-1.0",52,301,2.82683940000004
Pri_ET_Study1_5,M,0/0/1900,2022-07-11_13h49.44.662,22,test,Prioritise2,1,square,triangle,circle,cross,"0.1184165720364383,0.4719787961363635,-0.6454646836219573","0.6646065852612066,0.3192149609683923,-1.0","-0.07115460775268467,0.4487065849390661,0.42510855757080535","1.0,-0.09100024043058197,-1.0",156,107,226,45,"0.6646065852612066,0.3192149609683923,-1.0",107,"1.0,0.14454808295369936,-1.0",77,48,3.295510400000012
Pri_ET_Study1_5,M,0/0/1900,2022-07-11_13h49.44.662,23,test,Prioritise2,0,square,circle,triangle,cross,"1.0,-0.29113614091237483,-0.20140827106110581","0.4665589352747248,0.2840716923699367,0.6714844115718321","-0.09355100115627091,0.45554214766479406,0.3928507547204487","1.0,-0.07783297952557244,0.3960373748090056",4,268,223,319,"1.0,-0.29113614091237483,-0.20140827106110581",4,"0.6056610145008174,0.2310032177113197,0.6677762187869551",277,359,2.685487099999932
Pri_ET_Study1_5,M,0/0/1900,2022-07-11_13h49.44.662,24,test,Prioritise3,2,circle,cross,square,triangle,"0.6670955436242052,0.20546863097446266,0.6594879335101997","-0.14715582087117385,0.4925402828135286,0.025608434090147236","1.0,-0.28715474606071,-0.26149890951485844","0.4397882380638529,0.39726260220805054,-1.0",281,195,8,126,"1.0,-0.28715474606071,-0.26149890951485844",8,"0.5128942075651803,0.26707393527284795,0.6725600501236935",271,259,3.1906452999999146
Pri_ET_Study1_5,M,0/0/1900,2022-07-11_13h49.44.662,25,test,Prioritise2,2,circle,triangle,cross,square,"1.0,-0.18904346603826983,-0.637249894721835","0.05398205218015839,0.48170764156945833,-0.5023703861935837","0.6407010103455535,0.32862970770224886,-1.0","1.0,-0.19952917352700617,0.19318579588388318",31,163,109,336,"0.6407010103455535,0.32862970770224886,-1.0",109,"1.0,0.07402842417913646,-1.0",67,43,2.648180899999943
Pri_ET_Study1_5,M,0/0/1900,2022-07-11_13h49.44.662,26,test,Prioritise3,2,circle,triangle,cross,square,"0.38995744222104256,0.31083082350540914,0.6645497918058341","1.0,-0.2352776592018201,-0.4968859262116322","0.9677931896988998,0.1712594071065523,-1.0","0.21850949126575658,0.4532202130288874,-0.9933869065076532",263,23,81,146,"0.9677931896988998,0.1712594071065523,-1.0",81,"1.0,0.10281785561567158,-1.0",71,57,3.120900800000072
Pri_ET_Study1_5,M,0/0/1900,2022-07-11_13h49.44.662,27,test,Prioritise1,2,cross,triangle,square,circle,"1.0,-0.26238457869240295,-0.4002073564444957","0.8886984490493344,0.21562474761751438,-1.0","0.03525654226328623,0.4183671124064994,0.5284836519992187","-0.10043403746491275,0.49495767021285575,-0.14337977127983403",17,88,237,184,"0.03525654226328623,0.4183671124064994,0.5284836519992187",237,"1.0,-0.09842467873037941,-1.0",44,211,3.303925999999933
Pri_ET_Study1_5,M,0/0/1900,2022-07-11_13h49.44.662,28,test,Prioritise3,0,cross,circle,square,triangle,"1.0,-0.25779156666188097,0.04465505589445962","0.09948789533259128,0.47503830359136323,-0.601955130836429","1.0,-0.08353952619481586,-1.0","0.9575099088241161,0.0625393185362546,0.5595685159060846",347,158,46,301,"1.0,-0.25779156666188097,0.04465505589445962",347,"0.4204673865307198,0.3003640950728248,0.6680936776579738",265,33,12.167216100000019
Pri_ET_Study1_5,M,0/0/1900,2022-07-11_13h49.44.662,29,test,Prioritise1,0,triangle,square,circle,cross,"-0.09478536258948067,0.49485771099788134,-0.15929400236046964","0.854028730639278,0.2336538600688729,-1.0","0.7874973343482177,0.15108074255601633,0.6309286527694675","1.0,-0.2288330890480459,0.12700076968242469",183,91,289,341,"-0.09478536258948067,0.49485771099788134,-0.15929400236046964",183,"0.49743207809976986,0.2728177294164349,0.672458831583457",270,16,2.642296099999953
Pri_ET_Study1_5,M,0/0/1900,2022-07-11_13h49.44.662,30,test,Prioritise4,1,triangle,cross,square,circle,"1.0,-0.2618543528600009,0.0306611530728087","0.9898363577373541,0.15802139914365565,-1.0","-0.15913672951032076,0.48350679120805196,0.18230705521727808","0.4630300053623657,0.39022810787803497,-1.0",348,79,206,124,"0.9898363577373541,0.15802139914365565,-1.0",79,"-0.02724900693809007,0.43596400275120595,0.47511170232003863",231,354,3.18645360000005
Pri_ET_Study1_5,M,0/0/1900,2022-07-11_13h49.44.662,31,test,Prioritise3,1,circle,square,cross,triangle,"0.4981526525436166,0.3791643150394166,-1.0","0.18599750731146814,0.3752337008299145,0.6114718629309206","1.0,0.01469043779870538,-1.0","1.0,-0.19319706407583936,0.20612000948251996",121,249,59,335,"0.18599750731146814,0.3752337008299145,0.6114718629309206",249,"0.9454860823634645,0.18425356693025585,-1.0",83,56,4.243230599999947
Pri_ET_Study1_5,M,0/0/1900,2022-07-11_13h49.44.662,32,test,Prioritise4,0,square,triangle,circle,cross,"1.0,-0.2583995670372059,-0.4160170008955538","0.49743207809976986,0.2728177294164349,0.672458831583457","0.19781922438295352,0.4574422518266765,-0.8818361039644314","1.0,-0.15960027999342463,0.2690977661520819",18,270,148,330,"1.0,-0.2583995670372059,-0.4160170008955538",18,"0.8886984490493344,0.21562474761751438,-1.0",88,322,3.6047247000000198
Pri_ET_Study1_5,M,0/0/1900,2022-07-11_13h49.44.662,33,test,Prioritise4,3,cross,triangle,circle,square,"1.0,-0.18672585607811187,0.21894575397790916","0.04521328814621106,0.4828757040428189,-0.4835461552047625","1.0,0.0885108071490186,-1.0","0.5335383805596645,0.36747902832868284,-1.0",334,164,69,118,"0.5335383805596645,0.36747902832868284,-1.0",118,"0.19781922438295352,0.4574422518266765,-0.8818361039644314",148,31,3.3038361000000123
Pri_ET_Study1_5,M,0/0/1900,2022-07-11_13h49.44.662,34,test,Prioritise4,3,circle,square,cross,triangle,"-0.1582066093163167,0.48234509352938293,0.19584550247902222","1.0,-0.07007995956776203,0.4066709204115653","0.6287517000804042,0.333230015934751,-1.0","1.0,-0.18262560807777894,-0.6564771422547051",207,318,110,32,"1.0,-0.18262560807777894,-0.6564771422547051",32,"1.0,0.0520116041796701,-1.0",64,290,3.07764880000002
Pri_ET_Study1_5,M,0/0/1900,2022-07-11_13h49.44.662,35,test,Prioritise4,3,cross,circle,square,triangle,"-0.15691856372514257,0.4811251279442219,0.20925454252068332","0.2607905457923898,0.44405077031286466,-1.0","1.0,0.022205290041545256,-1.0","1.0,-0.2812391217555803,-0.30713162009795525",208,142,60,11,"1.0,-0.2812391217555803,-0.30713162009795525",11,"1.0,-0.21911833444213913,-0.5474132739956148",26,152,3.670897000000082
Pri_ET_Study1_5,M,0/0/1900,2022-07-11_13h49.44.662,36,test,Prioritise1,2,square,circle,cross,triangle,"-0.07115460775268467,0.4487065849390661,0.42510855757080535","-0.10587186235375057,0.4950046804635242,-0.12755688133261178","0.9677931896988998,0.1712594071065523,-1.0","1.0,-0.04666697700988032,0.4375655321668761",226,185,81,315,"0.9677931896988998,0.1712594071065523,-1.0",81,"-0.11280811015512238,0.4617870748317987,0.35899735609320693",220,58,5.953430900000058
Pri_ET_Study1_5,M,0/0/1900,2022-07-11_13h49.44.662,37,test,Prioritise4,0,cross,triangle,square,circle,"-0.15971287347422924,0.4846106035432911,0.16864202556096686","1.0,-0.14190666083918357,-0.7896703829265752","0.9439739668489959,0.07017173146500566,0.5667550331301558","1.0,-0.24425036060701033,0.08619108045783674",205,38,300,344,"-0.15971287347422924,0.4846106035432911,0.16864202556096686",205,"0.6885060196604067,0.3095143481419429,-1.0",105,170,3.7453021000000035
Pri_ET_Study1_5,M,0/0/1900,2022-07-11_13h49.44.662,38,test,Prioritise3,3,square,triangle,circle,cross,"1.0,0.14454808295369936,-1.0","0.49743207809976986,0.2728177294164349,0.672458831583457","1.0,-0.0932311933171065,0.374286934875081","0.28235212283095645,0.4390974279014652,-1.0",77,270,321,140,"0.28235212283095645,0.4390974279014652,-1.0",140,"0.23950483221035568,0.4487573681220651,-1.0",144,296,2.6213990999999623
Pri_ET_Study1_5,M,0/0/1900,2022-07-11_13h49.44.662,39,test,Prioritise4,1,circle,triangle,cross,square,"0.3148218664135791,0.3356097028178475,0.6512264970146455","0.557247182986663,0.35934004439537626,-1.0","1.0,-0.23930972970484676,0.09987881270213972","0.984183681480933,0.0471694796759472,0.544551712303033",258,116,343,303,"0.557247182986663,0.35934004439537626,-1.0",116,"0.1673887875274096,0.46333008938060627,-0.7729226224565875",151,151,4.826844899999969
Pri_ET_Study1_5,M,0/0/1900,2022-07-11_13h49.44.662,40,test,Prioritise4,0,cross,square,triangle,circle,"0.8022226392771252,0.14399413187212562,0.6262603189685363","1.0,-0.19319706407583936,0.20612000948251996","-0.03545149328753128,0.4915787209123279,-0.3069086161051545","1.0,-0.24030349193845646,-0.4804258498410512",290,335,174,22,"0.8022226392771252,0.14399413187212562,0.6262603189685363",290,"1.0,0.08129056571751603,-1.0",68,271,7.085506499999838
Pri_ET_Study1_5,M,0/0/1900,2022-07-11_13h49.44.662,41,test,NoPrioritise,0,circle,square,cross,triangle,"1.0,-0.1694459751095364,-0.6968170409133772","-0.11109230792064029,0.494998675286374,-0.11182488810932678","1.0,0.00043266500642058503,0.4945408245860483","0.3000437839717358,0.34032750492681907,0.6478023910819077",34,186,309,257,"1.0,-0.1694459751095364,-0.6968170409133772",34,"1.0,-0.053431764767480794,-1.0",50,85,5.377733399999897
Pri_ET_Study1_5,M,0/0/1900,2022-07-11_13h49.44.662,42,test,Prioritise2,2,triangle,circle,cross,square,"1.0,-0.2885749142137033,-0.24639910949319843","0.7726890832158932,0.15810653737494773,0.6353563968956581","-0.020427730643879483,0.49026716567376205,-0.3409363637973366","0.9001622899209403,0.20948101299508481,-1.0",7,288,172,87,"-0.020427730643879483,0.49026716567376205,-0.3409363637973366",172,"0.8072476110492377,0.25673500061136667,-1.0",95,190,3.4580995999999686
Pri_ET_Study1_5,M,0/0/1900,2022-07-11_13h49.44.662,43,test,Prioritise1,2,circle,triangle,square,cross,"0.6210691465439071,0.22472865664823272,0.6660842894513506","0.9788490541088481,0.1646703741338249,-1.0","-0.02724900693809007,0.43596400275120595,0.47511170232003863","1.0,-0.2696580629443429,-0.3688697412252795",278,80,231,15,"-0.02724900693809007,0.43596400275120595,0.47511170232003863",231,"1.0,-0.18672585607811187,0.21894575397790916",334,95,9.393573099999912
Pri_ET_Study1_5,M,0/0/1900,2022-07-11_13h49.44.662,44,test,Prioritise4,2,triangle,circle,cross,square,"0.22896995211020998,0.45101907426419996,-1.0","1.0,-0.17339639938985352,0.2442586263282529","0.28536486694739915,0.3449661378960809,0.6441272460635925","0.9001622899209403,0.20948101299508481,-1.0",145,332,256,87,"0.28536486694739915,0.3449661378960809,0.6441272460635925",256,"0.28536486694739915,0.3449661378960809,0.6441272460635925",256,69,2.0487247000000934
Pri_ET_Study1_5,M,0/0/1900,2022-07-11_13h49.44.662,45,test,Prioritise3,1,circle,triangle,square,cross,"0.9454860823634645,0.18425356693025585,-1.0","0.1997782184249719,0.37114427631595914,0.6168699381761522","1.0,-0.27259515439613147,-0.011730747350127468","0.4282253351913974,0.40067838587068505,-1.0",83,250,351,127,"0.1997782184249719,0.37114427631595914,0.6168699381761522",250,"0.13253781604398185,0.3908200528647623,0.5874938236427092",245,223,4.962184799999932
Pri_ET_Study1_5,M,0/0/1900,2022-07-11_13h49.44.662,46,test,Prioritise1,0,triangle,square,circle,cross,"1.0,0.10990102188412854,-1.0","0.0809641014742315,0.4778728517952051,-0.560834903418019","-0.15325530146069954,0.47850880592239364,0.23567289266690317","1.0,-0.2759589912597996,-0.3378595329546661",72,160,210,13,"1.0,0.10990102188412854,-1.0",72,"1.0,0.08129056571751603,-1.0",68,220,4.311787699999968
Pri_ET_Study1_5,M,0/0/1900,2022-07-11_13h49.44.662,47,test,Prioritise4,0,circle,triangle,square,cross,"-0.14097292288545527,0.4934633616179327,-0.004268922352566595","1.0,-0.015267259554568757,0.4762913260168815","0.4511598862406947,0.28958122135142217,0.6706112376461497","0.38240568475417525,0.4136729392938614,-1.0",193,311,267,131,"-0.14097292288545527,0.4934633616179327,-0.004268922352566595",193,"0.4282253351913974,0.40067838587068505,-1.0",127,37,3.4294270000000324
Pri_ET_Study1_5,M,0/0/1900,2022-07-11_13h49.44.662,48,test,Prioritise3,1,triangle,circle,square,cross,"-0.1442047673080774,0.4930289775224417,0.010718955352132964","1.0,-0.13815640460244194,0.305409278040333","1.0,-0.06852917744512788,-1.0","0.08211922552252782,0.40518924666980105,0.5597871012004456",194,327,48,241,"1.0,-0.13815640460244194,0.305409278040333",327,"1.0,-0.24030349193845646,-0.4804258498410512",22,13,7.568376500000113
Pri_ET_Study1_5,M,0/0/1900,2022-07-11_13h49.44.662,49,test,NoPrioritise,0,circle,triangle,cross,square,"0.8744524420551003,0.1077067653533772,0.5993718879433354","-0.1415152911985038,0.4725588943334964,0.2868282896334675","0.5810306884554026,0.3509198779468534,-1.0","1.0,-0.266139671692747,-0.3844942650329082",295,214,114,16,"0.8744524420551003,0.1077067653533772,0.5993718879433354",295,"1.0,-0.28704790815198966,-0.09816451385922986",357,245,10.56287610000004
Pri_ET_Study1_5,M,0/0/1900,2022-07-11_13h49.44.662,50,test,NoPrioritise,3,square,triangle,circle,cross,"-0.14500574250124976,0.47413711311303364,0.2742570559677715","1.0,-0.283482916447115,-0.29186272671519153","1.0,-0.07783297952557244,0.3960373748090056","0.09948789533259128,0.47503830359136323,-0.601955130836429",213,10,319,158,"0.09948789533259128,0.47503830359136323,-0.601955130836429",158,"1.0,0.1377261376429495,-1.0",76,195,4.776659900000141
Pri_ET_Study1_5,M,0/0/1900,2022-07-11_13h49.44.662,51,test,Prioritise3,1,triangle,circle,cross,square,"1.0,-0.12042756170577695,-0.8836340589512358","0.8458569493622168,0.12238552790175761,0.6108291411981881","0.8307090529045498,0.2453327610063578,-1.0","0.3262451978832188,0.42843842117143094,-1.0",41,293,93,136,"0.8458569493622168,0.12238552790175761,0.6108291411981881",293,"0.024156992038590452,0.42147876676365525,0.5201127943356356",236,72,2.731275500000038
Pri_ET_Study1_5,M,0/0/1900,2022-07-11_13h49.44.662,52,test,Prioritise2,0,triangle,cross,circle,square,"-0.1415152911985038,0.4725588943334964,0.2868282896334675","1.0,-0.29111130123666484,-0.15686324257888173","0.9973143857544444,0.03943765994348003,0.5367265506444097","1.0,-0.015534070910116049,-1.0",214,1,304,55,"-0.1415152911985038,0.4725588943334964,0.2868282896334675",214,"0.2277843781848521,0.3627318956570289,0.6269388339435948",252,307,3.3254219000000376
Pri_ET_Study1_5,M,0/0/1900,2022-07-11_13h49.44.662,53,test,NoPrioritise,0,cross,square,circle,triangle,"0.058211064666331636,0.41192535001918484,0.5445760826660213","1.0,-0.19319706407583936,0.20612000948251996","1.0,-0.045861603138592444,-1.0","0.7954699681646173,0.26233143705175754,-1.0",239,335,51,96,"0.058211064666331636,0.41192535001918484,0.5445760826660213",239,"0.4051864188365102,0.30563705046778256,0.6664498358678796",264,308,5.116449600000124
Pri_ET_Study1_5,M,0/0/1900,2022-07-11_13h49.44.662,54,test,Prioritise4,2,square,cross,circle,triangle,"-0.14715582087117385,0.4925402828135286,0.025608434090147236","0.08211922552252782,0.40518924666980105,0.5597871012004456","1.0,-0.09100024043058197,-1.0","1.0,-0.015267259554568757,0.4762913260168815",195,241,45,311,"1.0,-0.09100024043058197,-1.0",45,"0.6364477477613335,0.21838082541010184,0.6641383826852352",279,230,3.259501599999794
Pri_ET_Study1_5,M,0/0/1900,2022-07-11_13h49.44.662,55,test,Prioritise4,3,circle,cross,triangle,square,"0.25011230249462657,0.4464347244570299,-1.0","0.32969209843730707,0.3308126345090221,0.6543985772501693","-0.1336957186097738,0.49417000388378884,-0.03453353894846056","1.0,-0.08353952619481586,-1.0",143,259,191,46,"1.0,-0.08353952619481586,-1.0",46,"0.02803139784776887,0.4850479085911541,-0.44669070010662637",166,208,5.532941400000027
Pri_ET_Study1_5,M,0/0/1900,2022-07-11_13h49.44.662,56,test,Prioritise1,3,triangle,circle,square,cross,"1.0,-0.2117453636986133,0.16700499532847024","-0.07115460775268467,0.4487065849390661,0.42510855757080535","0.7718332302050808,0.2733134055615505,-1.0","0.5902286499321849,0.2372037618456999,0.6692134526599127",338,226,98,276,"0.5902286499321849,0.2372037618456999,0.6692134526599127",276,"0.8072476110492377,0.25673500061136667,-1.0",95,237,5.0306364000000485
Pri_ET_Study1_5,M,0/0/1900,2022-07-11_13h49.44.662,57,test,Prioritise1,3,circle,cross,square,triangle,"-0.1415152911985038,0.4725588943334964,0.2868282896334675","1.0,-0.06852917744512788,-1.0","1.0,-0.27259515439613147,-0.011730747350127468","0.7362113369355152,0.2892555466706437,-1.0",214,48,351,101,"0.7362113369355152,0.2892555466706437,-1.0",101,"1.0,-0.14892208927791584,-0.7642951287839744",37,110,5.04287219999992
Pri_ET_Study1_5,M,0/0/1900,2022-07-11_13h49.44.662,58,test,Prioritise2,0,circle,triangle,square,cross,"1.0,-0.13481497066722903,-0.8172789642511413","0.41670369996421397,0.40402696808005323,-1.0","-0.004817967995419115,0.4887422579776717,-0.37551595656205394","-0.137653653553384,0.47091943313012696,0.2992494234533911",39,128,170,215,"1.0,-0.13481497066722903,-0.8172789642511413",39,"-0.09478536258948067,0.49485771099788134,-0.15929400236046964",183,260,4.737461100000019
Pri_ET_Study1_5,M,0/0/1900,2022-07-11_13h49.44.662,59,test,Prioritise4,3,triangle,square,circle,cross,"-0.15218698220497417,0.491399065672369,0.0550849709310266","1.0,-0.00039510366743955583,-1.0","0.4864131283203974,0.38292092452220805,-1.0","1.0,-0.015267259554568757,0.4762913260168815",197,57,122,311,"1.0,-0.015267259554568757,0.4762913260168815",311,"1.0,-0.09842467873037941,-1.0",44,172,4.4165367000000515
Pri_ET_Study1_5,M,0/0/1900,2022-07-11_13h49.44.662,60,test,Prioritise1,3,circle,triangle,square,cross,"0.7954699681646173,0.26233143705175754,-1.0","0.3000437839717358,0.34032750492681907,0.6478023910819077","-0.15425303278284086,0.49074605836511664,0.06966808771232391","0.22896995211020998,0.45101907426419996,-1.0",96,257,198,145,"0.22896995211020998,0.45101907426419996,-1.0",145,"0.28536486694739915,0.3449661378960809,0.6441272460635925",256,160,2.8435188000000835
Pri_ET_Study1_5,M,0/0/1900,2022-07-11_13h49.44.662,61,test,Prioritise3,3,square,triangle,cross,circle,"1.0,-0.223312447401106,0.14042906010430367","1.0,0.029697581538389972,-1.0","0.30417514509994215,0.43389432139899475,-1.0","0.43579397082986615,0.29501209376045523,0.6694809165992386",340,61,138,266,"0.43579397082986615,0.29501209376045523,0.6694809165992386",266,"0.7004475934634664,0.30455679594870433,-1.0",104,266,4.792698200000132
Pri_ET_Study1_5,M,0/0/1900,2022-07-11_13h49.44.662,62,test,Prioritise3,2,square,circle,cross,triangle,"0.7362113369355152,0.2892555466706437,-1.0","0.6670955436242052,0.20546863097446266,0.6594879335101997","-0.14981892062729885,0.491997057231198,0.04039774195876733","1.0,-0.2541916545294901,-0.43193236346031305",101,281,196,19,"-0.14981892062729885,0.491997057231198,0.04039774195876733",196,"-0.1599394399400429,0.4856569012506431,0.15485318992015062",204,92,9.560882300000003
Pri_ET_Study1_5,M,0/0/1900,2022-07-11_13h49.44.662,63,test,Prioritise3,0,cross,square,triangle,circle,"1.0,-0.10580765013847959,-0.9756165541078137","1.0,-0.24425036060701033,0.08619108045783674","-0.14981892062729885,0.491997057231198,0.04039774195876733","0.058211064666331636,0.41192535001918484,0.5445760826660213",43,344,196,239,"1.0,-0.10580765013847959,-0.9756165541078137",43,"1.0,-0.2692625012388049,0.0024658652101630096",350,86,20.473411799999894
Pri_ET_Study1_5,M,0/0/1900,2022-07-11_13h49.44.662,64,test,NoPrioritise,1,cross,triangle,square,circle,"1.0,-0.007959551777363516,-1.0","1.0,-0.18672585607811187,0.21894575397790916","-0.020427730643879483,0.49026716567376205,-0.3409363637973366","0.35968141037855483,0.3209804608831912,0.6599831247203418",56,334,172,261,"1.0,-0.18672585607811187,0.21894575397790916",334,"1.0,-0.27259515439613147,-0.011730747350127468",351,226,12.529971100000012
Pri_ET_Study1_5,M,0/0/1900,2022-07-11_13h49.44.662,65,test,NoPrioritise,1,cross,square,circle,triangle,"1.0,0.023895135487088437,0.520455959599228","1.0,-0.291416597096681,-0.18651092035548889","0.03525654226328623,0.4183671124064994,0.5284836519992187","-0.04273264564935253,0.4921547641531523,-0.29008164886068233",306,3,237,175,"1.0,-0.291416597096681,-0.18651092035548889",3,"1.0,-0.04666697700988032,0.4375655321668761",315,127,5.164615700000013
Pri_ET_Study1_5,M,0/0/1900,2022-07-11_13h49.44.662,66,test,Prioritise4,3,square,cross,circle,triangle,"-0.06301515924349677,0.44629443292921844,0.43549282839157066","0.5747774279545166,0.24332959852807035,0.670395358395977","-0.1160886962144162,0.49493957268076216,-0.09618366371381681","1.0,-0.20752138035248524,-0.5823144238115788",227,275,187,28,"1.0,-0.20752138035248524,-0.5823144238115788",28,"1.0,0.01469043779870538,-1.0",59,248,3.5303352999999333
Pri_ET_Study1_5,M,0/0/1900,2022-07-11_13h49.44.662,67,test,Prioritise3,2,cross,circle,square,triangle,"0.10890282843090082,0.4735368131811257,-0.6233623294930688","0.2563330525591274,0.3540064263668754,0.6360281906414551","1.0,0.10281785561567158,-1.0","-0.1582066093163167,0.48234509352938293,0.19584550247902222",157,254,71,207,"1.0,0.10281785561567158,-1.0",71,"1.0,-0.060989074760531836,-1.0",49,270,3.4586517000000185
Pri_ET_Study1_5,M,0/0/1900,2022-07-11_13h49.44.662,68,test,Prioritise2,0,square,cross,circle,triangle,"0.41670369996421397,0.40402696808005323,-1.0","1.0,-0.030978196634575572,0.4572913763932509","1.0,0.0520116041796701,-1.0","-0.1160886962144162,0.49493957268076216,-0.09618366371381681",128,313,64,187,"0.41670369996421397,0.40402696808005323,-1.0",128,"0.8022226392771252,0.14399413187212562,0.6262603189685363",290,167,3.1539458000002014
Pri_ET_Study1_5,M,0/0/1900,2022-07-11_13h49.44.662,69,test,Prioritise2,0,circle,cross,square,triangle,"1.0,0.023895135487088437,0.520455959599228","-0.1336957186097738,0.49417000388378884,-0.03453353894846056","0.2277843781848521,0.3627318956570289,0.6269388339435948","1.0,0.11693500061052231,-1.0",306,191,252,73,"1.0,0.023895135487088437,0.520455959599228",306,"1.0,-0.25779156666188097,0.04465505589445962",347,257,6.336717800000088
Pri_ET_Study1_5,M,0/0/1900,2022-07-11_13h49.44.662,70,test,NoPrioritise,0,square,cross,triangle,circle,"1.0,0.023895135487088437,0.520455959599228","0.5691306813430501,0.3551652128948415,-1.0","1.0,-0.28715474606071,-0.26149890951485844","-0.14500574250124976,0.47413711311303364,0.2742570559677715",306,115,8,213,"1.0,0.023895135487088437,0.520455959599228",306,"0.04661056885000425,0.4151827959781793,0.5366388806382338",238,314,10.983865300000161
Pri_ET_Study1_5,M,0/0/1900,2022-07-11_13h49.44.662,71,test,Prioritise3,3,cross,square,circle,triangle,"0.9709143462906737,0.05487098646765176,0.5521665648538059","1.0,-0.06852917744512788,-1.0","0.40522526965537775,0.4073086888830977,-1.0","1.0,-0.291416597096681,-0.18651092035548889",302,48,129,3,"1.0,-0.291416597096681,-0.18651092035548889",3,"-0.045760705841983884,0.4412666063320212,0.45569155140365925",229,271,4.510864399999946
Pri_ET_Study1_5,M,0/0/1900,2022-07-11_13h49.44.662,72,test,Prioritise4,2,cross,square,circle,triangle,"1.0,0.09568719202827336,-1.0","0.7127176267031001,0.18557291042394586,0.6506302425082333","0.5217173616076898,0.3714436344565344,-1.0","-0.1334211421392112,0.46921826779504494,0.31151742599586085",70,284,119,216,"0.5217173616076898,0.3714436344565344,-1.0",119,"-0.05680994196765965,0.4931478034098584,-0.2567707460520542",177,13,3.1570423999999093
Pri_ET_Study1_5,M,0/0/1900,2022-07-11_13h49.44.662,73,test,Prioritise2,1,square,triangle,cross,circle,"0.18599750731146814,0.3752337008299145,0.6114718629309206","-0.15913672951032076,0.48350679120805196,0.18230705521727808","1.0,0.007155954649565421,-1.0","0.8168605703912253,0.13684827598857496,0.6213530935889016",249,206,58,291,"-0.15913672951032076,0.48350679120805196,0.18230705521727808",206,"-0.10587186235375057,0.4950046804635242,-0.12755688133261178",185,266,4.445754399999942
Pri_ET_Study1_5,M,0/0/1900,2022-07-11_13h49.44.662,74,test,Prioritise2,1,square,triangle,circle,cross,"1.0,-0.1308360377071882,0.3172469791017578","1.0,-0.266139671692747,-0.3844942650329082","1.0,0.1377261376429495,-1.0","-0.15218698220497417,0.491399065672369,0.0550849709310266",326,16,76,197,"1.0,-0.266139671692747,-0.3844942650329082",16,"0.10890282843090082,0.4735368131811257,-0.6233623294930688",157,276,5.24190550000003
Pri_ET_Study1_5,M,0/0/1900,2022-07-11_13h49.44.662,75,test,NoPrioritise,1,circle,cross,triangle,square,"1.0,0.09568719202827336,-1.0","1.0,-0.21761393967782516,0.1537648375256555","-0.020427730643879483,0.49026716567376205,-0.3409363637973366","1.0,-0.24976805918886447,-0.4479639557291707",70,339,172,20,"1.0,-0.21761393967782516,0.1537648375256555",339,"0.18599750731146814,0.3752337008299145,0.6114718629309206",249,81,6.296721599999955
Pri_ET_Study1_5,M,0/0/1900,2022-07-11_13h49.44.662,76,test,Prioritise3,3,square,cross,triangle,circle,"1.0,-0.23930972970484676,0.09987881270213972","1.0,-0.015534070910116049,-1.0","-0.15425303278284086,0.49074605836511664,0.06966808771232391","0.19781922438295352,0.4574422518266765,-0.8818361039644314",343,55,198,148,"0.19781922438295352,0.4574422518266765,-0.8818361039644314",148,"1.0,0.022205290041545256,-1.0",60,9,10.959045199999991
Pri_ET_Study1_5,M,0/0/1900,2022-07-11_13h49.44.662,77,test,Prioritise1,2,circle,triangle,cross,square,"-0.10587186235375057,0.4950046804635242,-0.12755688133261178","1.0,-0.08353952619481586,-1.0","0.9575099088241161,0.0625393185362546,0.5595685159060846","0.8423878648894922,0.2395276862660105,-1.0",185,46,301,92,"0.9575099088241161,0.0625393185362546,0.5595685159060846",301,"-0.15325530146069954,0.47850880592239364,0.23567289266690317",210,83,8.135451099999955
Pri_ET_Study1_5,M,0/0/1900,2022-07-11_13h49.44.662,78,test,Prioritise2,2,triangle,circle,square,cross,"1.0,-0.2583995670372059,-0.4160170008955538","-0.06359610428535867,0.4935649245563736,-0.24027710533734647","1.0,0.007155954649565421,-1.0","0.21370971933434912,0.36697709911931464,0.6220261074603506",18,178,58,251,"1.0,0.007155954649565421,-1.0",58,"0.09441071644993415,0.40170970408167506,0.5670564126145141",242,163,17.40435260000004
Pri_ET_Study1_5,M,0/0/1900,2022-07-11_13h49.44.662,79,test,NoPrioritise,3,square,circle,triangle,cross,"0.9342399836420399,0.1906568045828605,-1.0","1.0,-0.0855518419522695,0.38524161028667625","-0.15857178695416452,0.48845422840718666,0.1127707600476957","0.5283655398475315,0.26125276704655587,0.6724040666408482",84,320,201,272,"0.5283655398475315,0.26125276704655587,0.6724040666408482",272,"0.4204673865307198,0.3003640950728248,0.6680936776579738",265,247,1.9136312999999063
Pri_ET_Study1_5,M,0/0/1900,2022-07-11_13h49.44.662,80,test,Prioritise1,2,circle,triangle,square,cross,"0.5283655398475315,0.26125276704655587,0.6724040666408482","1.0,-0.27567226916307197,-0.025990342729996674","0.8189948021797893,0.2510686603392729,-1.0","0.09948789533259128,0.47503830359136323,-0.601955130836429",272,352,94,158,"0.8189948021797893,0.2510686603392729,-1.0",94,"0.17237529551869346,0.3792456671279014,0.6058334931269098",248,221,2.6604369000001498
Pri_ET_Study1_5,M,0/0/1900,2022-07-11_13h49.44.662,81,test,Prioritise2,1,cross,square,triangle,circle,"1.0,-0.15960027999342463,0.2690977661520819","0.5283655398475315,0.26125276704655587,0.6724040666408482","1.0,-0.24030349193845646,-0.4804258498410512","1.0,0.07402842417913646,-1.0",330,272,22,67,"0.5283655398475315,0.26125276704655587,0.6724040666408482",272,"0.3148218664135791,0.3356097028178475,0.6512264970146455",258,292,3.672751500000004
Pri_ET_Study1_5,M,0/0/1900,2022-07-11_13h49.44.662,82,test,NoPrioritise,3,cross,triangle,square,circle,"1.0,-0.21761393967782516,0.1537648375256555","-0.017538974095646753,0.43320838581829424,0.48452289736445553","1.0,-0.24513616553833184,-0.4641238358039159","0.8886984490493344,0.21562474761751438,-1.0",339,232,21,88,"0.8886984490493344,0.21562474761751438,-1.0",88,"1.0,-0.27567226916307197,-0.025990342729996674",352,63,8.426308800000015
Pri_ET_Study1_5,M,0/0/1900,2022-07-11_13h49.44.662,83,test,Prioritise1,1,square,cross,circle,triangle,"1.0,0.14454808295369936,-1.0","0.4204673865307198,0.3003640950728248,0.6680936776579738","1.0,-0.0855518419522695,0.38524161028667625","0.019624625934283157,0.48605247051678724,-0.428609032695351",77,265,320,167,"0.4204673865307198,0.3003640950728248,0.6680936776579738",265,"0.1997782184249719,0.37114427631595914,0.6168699381761522",250,196,1.8611527000000478
Pri_ET_Study1_5,M,0/0/1900,2022-07-11_13h49.44.662,84,test,NoPrioritise,0,triangle,circle,cross,square,"1.0,0.00043266500642058503,0.4945408245860483","1.0,0.11693500061052231,-1.0","1.0,-0.28849207683894174,-0.11276294357485506","-0.15913672951032076,0.48350679120805196,0.18230705521727808",309,73,358,206,"1.0,0.00043266500642058503,0.4945408245860483",309,"-0.10674528321075638,0.4597702151299572,0.3704541436797111",221,46,6.046533400000044
Pri_ET_Study1_5,M,0/0/1900,2022-07-11_13h49.44.662,85,test,Prioritise2,2,circle,triangle,cross,square,"1.0,-0.030978196634575572,0.4572913763932509","1.0,-0.1558548551326704,-0.7405909184559469","0.8307090529045498,0.2453327610063578,-1.0","-0.11109230792064029,0.494998675286374,-0.11182488810932678",313,36,93,186,"0.8307090529045498,0.2453327610063578,-1.0",93,"0.697563521415238,0.19227379976898162,0.6538323072937366",283,78,10.520317900000009
Pri_ET_Study1_5,M,0/0/1900,2022-07-11_13h49.44.662,86,test,Prioritise1,2,square,circle,cross,triangle,"0.5217173616076898,0.3714436344565344,-1.0","1.0,0.11693500061052231,-1.0","-0.0889322071979689,0.49470485377678974,-0.17530036558846096","1.0,-0.23006636068103248,-0.5135224369802548",119,73,182,24,"-0.0889322071979689,0.49470485377678974,-0.17530036558846096",182,"1.0,-0.015267259554568757,0.4762913260168815",311,276,6.693078900000046
Pri_ET_Study1_5,M,0/0/1900,2022-07-11_13h49.44.662,87,test,Prioritise3,2,triangle,cross,square,circle,"1.0,-0.12042756170577695,-0.8836340589512358","-0.01269399205840449,0.48953144240138324,-0.3581525544909092","0.35968141037855483,0.3209804608831912,0.6599831247203418","1.0,-0.2288330890480459,0.12700076968242469",41,171,261,341,"0.35968141037855483,0.3209804608831912,0.6599831247203418",261,"1.0,-0.11314379054822865,-0.9277147292103822",42,270,4.86218370000006
Pri_ET_Study1_5,M,0/0/1900,2022-07-11_13h49.44.662,88,test,Prioritise4,3,square,cross,circle,triangle,"0.32969209843730707,0.3308126345090221,0.6543985772501693","1.0,-0.12765325079304635,-0.8480385611780058","0.31518019558100097,0.43119815975599396,-1.0","-0.1599394399400429,0.4856569012506431,0.15485318992015062",259,40,137,204,"-0.1599394399400429,0.4856569012506431,0.15485318992015062",204,"-0.15087465470231598,0.47711162872615454,0.24867635980838454",211,42,3.1953366000000187
Pri_ET_Study1_5,M,0/0/1900,2022-07-11_13h49.44.662,89,test,Prioritise4,2,square,triangle,cross,circle,"-0.07115460775268467,0.4487065849390661,0.42510855757080535","1.0,-0.223312447401106,0.14042906010430367","0.8771865507724368,0.22170185938115816,-1.0","0.03656203285471027,0.4839890544285097,-0.46499532916065",226,340,89,165,"0.8771865507724368,0.22170185938115816,-1.0",89,"1.0,-0.25349859092244853,0.058576446168723484",346,188,9.151237300000048
Pri_ET_Study1_5,M,0/0/1900,2022-07-11_13h49.44.662,90,test,Prioritise1,3,circle,triangle,square,cross,"1.0,-0.10844910144201803,0.3519141850209708","0.29323185337982705,0.4365272844863326,-1.0","0.18599750731146814,0.3752337008299145,0.6114718629309206","1.0,-0.18904346603826983,-0.637249894721835",323,139,249,31,"1.0,-0.18904346603826983,-0.637249894721835",31,"0.43579397082986615,0.29501209376045523,0.6694809165992386",266,249,4.9237356000001
Pri_ET_Study1_5,M,0/0/1900,2022-07-11_13h49.44.662,91,test,NoPrioritise,2,circle,cross,triangle,square,"1.0,0.13084904670314157,-1.0","0.08211922552252782,0.40518924666980105,0.5597871012004456","0.07186027412725471,0.47920645949573504,-0.5409731165987569","1.0,-0.27567226916307197,-0.025990342729996674",75,241,161,352,"0.07186027412725471,0.47920645949573504,-0.5409731165987569",161,"-0.14097292288545527,0.4934633616179327,-0.004268922352566595",193,282,5.583647100000007
Pri_ET_Study1_5,M,0/0/1900,2022-07-11_13h49.44.662,92,test,Prioritise2,2,circle,square,triangle,cross,"1.0,-0.11314379054822865,-0.9277147292103822","0.7278119810668549,0.17880451220180715,0.6471802765379799","1.0,-0.2853220527670477,-0.0836186653125478","-0.06301515924349677,0.44629443292921844,0.43549282839157066",42,285,356,227,"1.0,-0.2853220527670477,-0.0836186653125478",356,"1.0,-0.2352776592018201,-0.4968859262116322",23,76,3.9753153999999995
Pri_ET_Study1_5,M,0/0/1900,2022-07-11_13h49.44.662,93,test,NoPrioritise,0,circle,triangle,square,cross,"1.0,0.0520116041796701,-1.0","0.32969209843730707,0.3308126345090221,0.6543985772501693","1.0,-0.28331765203541326,-0.06912673399707303","-0.1552691192795369,0.47984650043174004,0.22253130766167373",64,259,355,209,"1.0,0.0520116041796701,-1.0",64,"0.854028730639278,0.2336538600688729,-1.0",91,131,8.157297900000003
Pri_ET_Study1_5,M,0/0/1900,2022-07-11_13h49.44.662,94,test,NoPrioritise,3,cross,circle,triangle,square,"0.019624625934283157,0.48605247051678724,-0.428609032695351","1.0,-0.266139671692747,-0.3844942650329082","0.4665589352747248,0.2840716923699367,0.6714844115718321","0.4864131283203974,0.38292092452220805,-1.0",167,16,268,122,"0.4864131283203974,0.38292092452220805,-1.0",122,"0.5128942075651803,0.26707393527284795,0.6725600501236935",271,108,10.595256599999857
Pri_ET_Study1_5,M,0/0/1900,2022-07-11_13h49.44.662,95,test,Prioritise4,1,square,cross,triangle,circle,"1.0,-0.10844910144201803,0.3519141850209708","0.07186027412725471,0.47920645949573504,-0.5409731165987569","0.9229356114863154,0.19699631777014193,-1.0","0.4204673865307198,0.3003640950728248,0.6680936776579738",323,161,85,265,"0.07186027412725471,0.47920645949573504,-0.5409731165987569",161,"0.4204673865307198,0.3003640950728248,0.6680936776579738",265,163,3.7115390999999818
Pri_ET_Study1_5,M,0/0/1900,2022-07-11_13h49.44.662,96,test,Prioritise1,3,triangle,circle,square,cross,"-0.12384754992127334,0.4656289401720195,0.3355818842165046","0.21850949126575658,0.4532202130288874,-0.9933869065076532","1.0,-0.20149881210311282,-0.6002331830476271","0.7874973343482177,0.15108074255601633,0.6309286527694675",218,146,29,289,"0.7874973343482177,0.15108074255601633,0.6309286527694675",289,"1.0,-0.10580765013847959,-0.9756165541078137",43,350,9.742497700000058
Pri_ET_Study1_5,M,0/0/1900,2022-07-11_13h49.44.662,97,test,NoPrioritise,1,cross,triangle,circle,square,"-0.045760705841983884,0.4412666063320212,0.45569155140365925","1.0,-0.28545618498147696,-0.27665271730440133","0.7481042841002781,0.28401253410301863,-1.0","1.0,-0.06229796743051119,0.4171389626044979",229,9,100,317,"1.0,-0.28545618498147696,-0.27665271730440133",9,"1.0,-0.20149881210311282,-0.6002331830476271",29,88,7.22225370000001
Pri_ET_Study1_5,M,0/0/1900,2022-07-11_13h49.44.662,98,test,Prioritise1,0,square,triangle,cross,circle,"-0.020427730643879483,0.49026716567376205,-0.3409363637973366","0.8189948021797893,0.2510686603392729,-1.0","1.0,-0.2117453636986133,0.16700499532847024","-0.1415152911985038,0.4725588943334964,0.2868282896334675",172,94,338,214,"-0.020427730643879483,0.49026716567376205,-0.3409363637973366",172,"0.003196340864616065,0.48789947231709707,-0.3930376390559923",169,16,2.7259193000004416
Pri_ET_Study1_5,M,0/0/1900,2022-07-11_13h49.44.662,99,test,Prioritise1,1,circle,cross,triangle,square,"-0.045760705841983884,0.4412666063320212,0.45569155140365925","1.0,-0.2692625012388049,0.0024658652101630096","0.5929450132200651,0.3466038519932022,-1.0","0.7578023835242338,0.165070026077772,0.63954193062201",229,350,113,287,"1.0,-0.2692625012388049,0.0024658652101630096",350,"0.4511598862406947,0.28958122135142217,0.6706112376461497",267,173,3.3957040999998753
Pri_ET_Study1_5,M,0/0/1900,2022-07-11_13h49.44.662,100,test,NoPrioritise,3,triangle,square,cross,circle,"0.29323185337982705,0.4365272844863326,-1.0","-0.08288077159008311,0.49449913405181634,-0.1914000323192474","1.0,-0.09100024043058197,-1.0","1.0,-0.03882752461224859,0.44751763152896373",139,181,45,314,"1.0,-0.03882752461224859,0.44751763152896373",314,"-0.1599394399400429,0.4856569012506431,0.15485318992015062",204,92,9.844055000000026
Pri_ET_Study1_5,M,0/0/1900,2022-07-11_13h49.44.662,101,test,NoPrioritise,2,triangle,square,circle,cross,"-0.11280811015512238,0.4617870748317987,0.35899735609320693","1.0,-0.2885749142137033,-0.24639910949319843","0.12802681261339854,0.47036395437091305,-0.6683938146358337","0.984183681480933,0.0471694796759472,0.544551712303033",220,7,155,303,"0.12802681261339854,0.47036395437091305,-0.6683938146358337",155,"0.2563330525591274,0.3540064263668754,0.6360281906414551",254,296,3.0210580999996637
Pri_ET_Study1_5,M,0/0/1900,2022-07-11_13h49.44.662,102,test,Prioritise4,0,cross,square,triangle,circle,"0.3148218664135791,0.3356097028178475,0.6512264970146455","1.0,0.0885108071490186,-1.0","0.9709143462906737,0.05487098646765176,0.5521665648538059","0.3937919637711427,0.41052389502637143,-1.0",258,69,302,130,"0.3148218664135791,0.3356097028178475,0.6512264970146455",258,"0.37478692104604905,0.3159453148278393,0.6623940312376342",262,195,2.2022023999998055
Pri_ET_Study1_5,M,0/0/1900,2022-07-11_13h49.44.662,103,test,Prioritise2,1,cross,triangle,circle,square,"0.25011230249462657,0.4464347244570299,-1.0","-0.15325530146069954,0.47850880592239364,0.23567289266690317","1.0,-0.266139671692747,-0.3844942650329082","1.0,0.06672643376273091,-1.0",143,210,16,66,"-0.15325530146069954,0.47850880592239364,0.23567289266690317",210,"-0.14715582087117385,0.4925402828135286,0.025608434090147236",195,92,2.693267399999968
Pri_ET_Study1_5,M,0/0/1900,2022-07-11_13h49.44.662,104,test,Prioritise1,3,circle,triangle,square,cross,"0.9026141269879491,0.09282770385166228,0.5869975937203944","1.0,0.1377261376429495,-1.0","0.1184165720364383,0.4719787961363635,-0.6454646836219573","1.0,-0.266139671692747,-0.3844942650329082",297,76,156,16,"1.0,-0.266139671692747,-0.3844942650329082",16,"-0.1160886962144162,0.49493957268076216,-0.09618366371381681",187,102,2.796104699999887
Pri_ET_Study1_5,M,0/0/1900,2022-07-11_13h49.44.662,105,test,Prioritise3,3,triangle,cross,square,circle,"0.2607905457923898,0.44405077031286466,-1.0","0.1997782184249719,0.37114427631595914,0.6168699381761522","1.0,0.008268781307839035,0.5033766660072689","1.0,-0.2897135245148047,-0.23135156862016248",142,250,308,6,"1.0,-0.2897135245148047,-0.23135156862016248",6,"0.7123805921607476,0.2995277721370815,-1.0",103,3,3.472675799999706
Pri_ET_Study1_5,M,0/0/1900,2022-07-11_13h49.44.662,106,test,Prioritise3,0,cross,circle,square,triangle,"1.0,0.031678509722878445,0.528693730626498","1.0,-0.265680167273015,0.01659727634298691","0.6407010103455535,0.32862970770224886,-1.0","-0.14097292288545527,0.4934633616179327,-0.004268922352566595",305,349,109,193,"1.0,0.031678509722878445,0.528693730626498",305,"1.0,0.031678509722878445,0.528693730626498",305,88,2.7120280999997703
Pri_ET_Study1_5,M,0/0/1900,2022-07-11_13h49.44.662,107,test,Prioritise4,0,circle,cross,triangle,square,"0.0809641014742315,0.4778728517952051,-0.560834903418019","1.0,-0.23006636068103248,-0.5135224369802548","0.21370971933434912,0.36697709911931464,0.6220261074603506","1.0,-0.1159761024614836,0.3405028198215041",160,24,251,324,"0.0809641014742315,0.4778728517952051,-0.560834903418019",160,"0.28235212283095645,0.4390974279014652,-1.0",140,40,2.6899069999999483
Pri_ET_Study1_5,M,0/0/1900,2022-07-11_13h49.44.662,108,test,Prioritise2,1,circle,square,triangle,cross,"0.1774490411200258,0.4614263698132157,-0.8044096137074778","-0.1415152911985038,0.4725588943334964,0.2868282896334675","0.6885060196604067,0.3095143481419429,-1.0","0.8885895249151152,0.10029123080933622,0.593298310174416",150,214,105,296,"-0.1415152911985038,0.4725588943334964,0.2868282896334675",214,"-0.07020697204541848,0.49392917223661503,-0.22388609625324785",179,318,3.6353837999999996
Pri_ET_Study1_5,M,0/0/1900,2022-07-11_13h49.44.662,109,test,Prioritise3,0,circle,triangle,cross,square,"-0.0864279937772866,0.4533299305616785,0.40378459741649797","-0.03545149328753128,0.4915787209123279,-0.3069086161051545","1.0,-0.015534070910116049,-1.0","1.0,0.016090771115826907,0.5120159997035829",224,174,55,307,"-0.0864279937772866,0.4533299305616785,0.40378459741649797",224,"0.2277843781848521,0.3627318956570289,0.6269388339435948",252,172,5.323053500000242
Pri_ET_Study1_5,M,0/0/1900,2022-07-11_13h49.44.662,110,test,Prioritise4,1,square,triangle,cross,circle,"0.9788490541088481,0.1646703741338249,-1.0","1.0,-0.266139671692747,-0.3844942650329082","1.0,-0.0855518419522695,0.38524161028667625","0.5902286499321849,0.2372037618456999,0.6692134526599127",80,16,320,276,"1.0,-0.266139671692747,-0.3844942650329082",16,"1.0,-0.0855518419522695,0.38524161028667625",320,211,4.22449030000007
Pri_ET_Study1_5,M,0/0/1900,2022-07-11_13h49.44.662,111,test,NoPrioritise,0,square,triangle,cross,circle,"1.0,-0.25349859092244853,0.058576446168723484","1.0,0.09568719202827336,-1.0","0.3446475566939091,0.32593623267112437,0.6573177271493604","-0.15857178695416452,0.48845422840718666,0.1127707600476957",346,70,260,201,"1.0,-0.25349859092244853,0.058576446168723484",346,"1.0,0.04460337025072447,-1.0",63,111,3.9742732999998225
Pri_ET_Study1_5,M,0/0/1900,2022-07-11_13h49.44.662,112,test,NoPrioritise,2,circle,cross,square,triangle,"0.5335383805596645,0.36747902832868284,-1.0","1.0,-0.2897135245148047,-0.23135156862016248","1.0,-0.007959551777363516,-1.0","0.09948789533259128,0.47503830359136323,-0.601955130836429",118,6,56,158,"1.0,-0.007959551777363516,-1.0",56,"1.0,-0.22467733398512213,-0.5303566464837048",25,114,4.2562738000001445
Pri_ET_Study1_5,M,0/0/1900,2022-07-11_13h49.44.662,113,test,NoPrioritise,2,circle,cross,triangle,square,"-0.0889322071979689,0.49470485377678974,-0.17530036558846096","0.9303101871846857,0.07776559495072588,0.5737236459068971","0.6168077568629242,0.33775906377670717,-1.0","1.0,-0.23006636068103248,-0.5135224369802548",182,299,111,24,"0.6168077568629242,0.33775906377670717,-1.0",111,"0.5438403016684124,0.25535465854340766,0.6719910833849003",273,137,4.9113617000002705
Pri_ET_Study1_5,M,0/0/1900,2022-07-11_13h49.44.662,114,test,Prioritise1,3,cross,square,triangle,circle,"1.0,-0.0855518419522695,0.38524161028667625","-0.12085421394465079,0.49482727509491764,-0.08063336981743141","1.0,0.0520116041796701,-1.0","0.04661056885000425,0.4151827959781793,0.5366388806382338",320,188,64,238,"0.04661056885000425,0.4151827959781793,0.5366388806382338",238,"0.07004997715874661,0.40859431628906884,0.5522929170622126",240,70,2.93857829999979
Pri_ET_Study1_5,M,0/0/1900,2022-07-11_13h49.44.662,115,test,Prioritise1,1,circle,triangle,square,cross,"1.0,-0.1558548551326704,-0.7405909184559469","0.5810306884554026,0.3509198779468534,-1.0","1.0,-0.2784883645829067,-0.04031082501765193","0.2277843781848521,0.3627318956570289,0.6269388339435948",36,114,353,252,"0.5810306884554026,0.3509198779468534,-1.0",114,"-0.12384754992127334,0.4656289401720195,0.3355818842165046",218,290,3.6622207999998864
Pri_ET_Study1_5,M,0/0/1900,2022-07-11_13h49.44.662,116,test,NoPrioritise,1,square,circle,cross,triangle,"0.5593128013847881,0.24938009178326226,0.6713213889936891","1.0,-0.10580765013847959,-0.9756165541078137","-0.10032491436032498,0.45768874039972984,0.3817396096664756","0.6646065852612066,0.3192149609683923,-1.0",274,43,222,107,"1.0,-0.10580765013847959,-0.9756165541078137",43,"1.0,-0.1801231371030828,0.23165973332613699",333,301,4.063766200000373
Pri_ET_Study1_5,M,0/0/1900,2022-07-11_13h49.44.662,117,test,Prioritise2,3,cross,circle,square,triangle,"1.0,-0.03882752461224859,0.44751763152896373","0.5593128013847881,0.24938009178326226,0.6713213889936891","1.0,-0.29113614091237483,-0.20140827106110581","-0.1481252589400609,0.4756545429797898,0.26153874370652797",314,274,4,212,"-0.1481252589400609,0.4756545429797898,0.26153874370652797",212,"0.37478692104604905,0.3159453148278393,0.6623940312376342",262,48,3.3771569000000454
Pri_ET_Study1_5,M,0/0/1900,2022-07-11_13h49.44.662,118,test,Prioritise4,2,cross,triangle,circle,square,"-0.1552691192795369,0.47984650043174004,0.22253130766167373","1.0,-0.291416597096681,-0.18651092035548889","0.2081252941518954,0.4553611512282272,-0.9356957589344492","0.7726890832158932,0.15810653737494773,0.6353563968956581",209,3,147,288,"0.2081252941518954,0.4553611512282272,-0.9356957589344492",147,"0.7718332302050808,0.2733134055615505,-1.0",98,336,3.1665013000001636
Pri_ET_Study1_5,M,0/0/1900,2022-07-11_13h49.44.662,119,test,Prioritise4,2,triangle,square,cross,circle,"1.0,-0.19533700364355222,-0.6185256211936343","0.5335383805596645,0.36747902832868284,-1.0","-0.03545149328753128,0.4915787209123279,-0.3069086161051545","0.002753009035763032,0.42748599986642954,0.5027340537090634",30,118,174,234,"-0.03545149328753128,0.4915787209123279,-0.3069086161051545",174,"0.38995744222104256,0.31083082350540914,0.6645497918058341",263,310,6.789671200000157
Pri_ET_Study1_5,M,0/0/1900,2022-07-11_13h49.44.662,120,test,Prioritise1,2,cross,square,circle,triangle,"1.0,-0.17339639938985352,0.2442586263282529","0.18599750731146814,0.3752337008299145,0.6114718629309206","0.9898363577373541,0.15802139914365565,-1.0","0.15741439024530024,0.4651753747362595,-0.7441898531558468",332,249,79,152,"0.9898363577373541,0.15802139914365565,-1.0",79,"0.8189948021797893,0.2510686603392729,-1.0",94,38,6.677558699999736
Pri_ET_Study1_5,M,0/0/1900,2022-07-11_13h49.44.662,121,test,Prioritise2,3,square,circle,cross,triangle,"-0.07663707943429687,0.49424057193593485,-0.2075945922293636","0.10691635848548953,0.39815526341168916,0.5740986907036785","1.0,-0.14892208927791584,-0.7642951287839744","1.0,-0.2784883645829067,-0.04031082501765193",180,243,37,353,"1.0,-0.2784883645829067,-0.04031082501765193",353,"0.25011230249462657,0.4464347244570299,-1.0",143,297,7.278904899999816
Pri_ET_Study1_5,M,0/0/1900,2022-07-11_13h49.44.662,122,test,NoPrioritise,0,cross,circle,triangle,square,"1.0,-0.030978196634575572,0.4572913763932509","1.0,-0.2133971103908915,-0.5647212078646006","0.7481042841002781,0.28401253410301863,-1.0","0.09017416231209929,0.4764835565228893,-0.581140049938324",313,27,100,159,"1.0,-0.030978196634575572,0.4572913763932509",313,"1.0,-0.2352776592018201,-0.4968859262116322",23,73,3.3644280000003164
Pri_ET_Study1_5,M,0/0/1900,2022-07-11_13h49.44.662,123,test,Prioritise4,1,circle,cross,square,triangle,"1.0,-0.04666697700988032,0.4375655321668761","-0.07663707943429687,0.49424057193593485,-0.2075945922293636","1.0,0.05938674364207741,-1.0","0.4864131283203974,0.38292092452220805,-1.0",315,180,65,122,"-0.07663707943429687,0.49424057193593485,-0.2075945922293636",180,"0.3485477954945324,0.4227267056127266,-1.0",134,290,3.0859129000000394
Pri_ET_Study1_5,M,0/0/1900,2022-07-11_13h49.44.662,124,test,Prioritise1,1,circle,square,triangle,cross,"0.38995744222104256,0.31083082350540914,0.6645497918058341","1.0,-0.023115205136178596,-1.0","0.7243026375027783,0.2944273290124073,-1.0","1.0,-0.27293323902243416,-0.35332683897484074",263,54,102,14,"1.0,-0.023115205136178596,-1.0",54,"1.0,-0.12765325079304635,-0.8480385611780058",40,4,4.896752599999672
Pri_ET_Study1_5,M,0/0/1900,2022-07-11_13h49.44.662,125,test,Prioritise1,1,circle,cross,square,triangle,"0.8168605703912253,0.13684827598857496,0.6213530935889016","1.0,-0.20149881210311282,-0.6002331830476271","0.9566713411825642,0.17778746275501622,-1.0","-0.007535811164553707,0.4303825516742039,0.4937312314227156",291,29,82,233,"1.0,-0.20149881210311282,-0.6002331830476271",29,"0.7836643519746782,0.2678576623980824,-1.0",97,128,4.65642089999983
Pri_ET_Study1_5,M,0/0/1900,2022-07-11_13h49.44.662,126,test,Prioritise2,0,cross,circle,triangle,square,"0.3373683384989987,0.425614728337375,-1.0","1.0,0.08129056571751603,-1.0","-0.1552691192795369,0.47984650043174004,0.22253130766167373","1.0,-0.12344048141961106,0.3289459564990056",135,68,209,325,"0.3373683384989987,0.425614728337375,-1.0",135,"0.5810306884554026,0.3509198779468534,-1.0",114,239,6.75294410000015
Pri_ET_Study1_5,M,0/0/1900,2022-07-11_13h49.44.662,127,test,Prioritise1,3,circle,cross,triangle,square,"0.03525654226328623,0.4183671124064994,0.5284836519992187","1.0,-0.2897135245148047,-0.23135156862016248","-0.028015013033697245,0.49094955428922593,-0.32385780920023366","1.0,0.007155954649565421,-1.0",237,6,173,58,"1.0,0.007155954649565421,-1.0",58,"-0.1334211421392112,0.46921826779504494,0.31151742599586085",216,318,8.921602700000221
Pri_ET_Study1_5,M,0/0/1900,2022-07-11_13h49.44.662,128,test,Prioritise2,3,square,cross,triangle,circle,"0.3373683384989987,0.425614728337375,-1.0","0.8189948021797893,0.2510686603392729,-1.0","0.7127176267031001,0.18557291042394586,0.6506302425082333","-0.1598212484830719,0.4866460428277808,0.1409432704458322",135,94,284,203,"-0.1598212484830719,0.4866460428277808,0.1409432704458322",203,"-0.12881863109484093,0.46745492896353924,0.32362925960524147",217,355,9.816880200000014
Pri_ET_Study1_5,M,0/0/1900,2022-07-11_13h49.44.662,129,test,Prioritise2,1,triangle,cross,circle,square,"0.40522526965537775,0.4073086888830977,-1.0","0.09441071644993415,0.40170970408167506,0.5670564126145141","1.0,-0.25779156666188097,0.04465505589445962","0.9026141269879491,0.09282770385166228,0.5869975937203944",129,242,347,297,"0.09441071644993415,0.40170970408167506,0.5670564126145141",242,"0.9709143462906737,0.05487098646765176,0.5521665648538059",302,95,4.380096599999888
Pri_ET_Study1_5,M,0/0/1900,2022-07-11_13h49.44.662,130,test,Prioritise4,1,square,circle,cross,triangle,"1.0,-0.15960027999342463,0.2690977661520819","1.0,0.03716450464441401,-1.0","0.10890282843090082,0.4735368131811257,-0.6233623294930688","0.6765582342033039,0.31440040312493167,-1.0",330,62,157,106,"1.0,0.03716450464441401,-1.0",62,"0.8072476110492377,0.25673500061136667,-1.0",95,232,11.041628500000115
Pri_ET_Study1_5,M,0/0/1900,2022-07-11_13h49.44.662,131,test,Prioritise3,2,cross,triangle,square,circle,"1.0,-0.24030349193845646,-0.4804258498410512","0.5438403016684124,0.25535465854340766,0.6719910833849003","0.07186027412725471,0.47920645949573504,-0.5409731165987569","0.8072476110492377,0.25673500061136667,-1.0",22,273,161,95,"0.07186027412725471,0.47920645949573504,-0.5409731165987569",161,"-0.06359610428535867,0.4935649245563736,-0.24027710533734647",178,122,4.128775900000164
Pri_ET_Study1_5,M,0/0/1900,2022-07-11_13h49.44.662,132,test,Prioritise2,0,cross,square,triangle,circle,"-0.10032491436032498,0.45768874039972984,0.3817396096664756","1.0,0.13084904670314157,-1.0","1.0,-0.2914084206358549,-0.1716625835351976","0.3373683384989987,0.425614728337375,-1.0",222,75,2,135,"-0.10032491436032498,0.45768874039972984,0.3817396096664756",222,"-0.0789607698268403,0.4510515800167316,0.41453817725242015",225,332,3.0073474999999235
Pri_ET_Study1_5,M,0/0/1900,2022-07-11_13h49.44.662,133,test,Prioritise2,2,square,cross,circle,triangle,"1.0,-0.2897135245148047,-0.23135156862016248","0.7599790593392,0.278698430329378,-1.0","-0.15745197328482874,0.48927392525561153,0.09851328502402845","0.8885895249151152,0.10029123080933622,0.593298310174416",6,99,200,296,"-0.15745197328482874,0.48927392525561153,0.09851328502402845",200,"0.854028730639278,0.2336538600688729,-1.0",91,342,5.311224700000366
Pri_ET_Study1_5,M,0/0/1900,2022-07-11_13h49.44.662,134,test,Prioritise3,3,circle,triangle,square,cross,"1.0,0.13084904670314157,-1.0","1.0,-0.26238457869240295,-0.4002073564444957","0.7428418032534498,0.17196979648312705,0.6434837115546581","1.0,-0.13815640460244194,0.305409278040333",75,17,286,327,"1.0,-0.13815640460244194,0.305409278040333",327,"0.5747774279545166,0.24332959852807035,0.670395358395977",275,127,5.280435399999988
Pri_ET_Study1_5,M,0/0/1900,2022-07-11_13h49.44.662,135,test,Prioritise2,0,circle,square,triangle,cross,"1.0,-0.25349859092244853,0.058576446168723484","1.0,-0.030699357614306977,-1.0","0.07004997715874661,0.40859431628906884,0.5522929170622126","0.6168077568629242,0.33775906377670717,-1.0",346,53,240,111,"1.0,-0.25349859092244853,0.058576446168723484",346,"0.07004997715874661,0.40859431628906884,0.5522929170622126",240,188,2.5732318000000305
Pri_ET_Study1_5,M,0/0/1900,2022-07-11_13h49.44.662,136,test,Prioritise1,2,square,triangle,circle,cross,"1.0,-0.2692625012388049,0.0024658652101630096","1.0,-0.015534070910116049,-1.0","0.1377313063497616,0.46869198128419454,-0.6923217342230605","0.7954699681646173,0.26233143705175754,-1.0",350,55,154,96,"0.1377313063497616,0.46869198128419454,-0.6923217342230605",154,"0.6048714455845987,0.34221696469187823,-1.0",112,269,2.3052920999998605
Pri_ET_Study1_5,M,0/0/1900,2022-07-11_13h49.44.662,137,test,Prioritise3,2,square,triangle,cross,circle,"-0.05680994196765965,0.4931478034098584,-0.2567707460520542","0.7243026375027783,0.2944273290124073,-1.0","1.0,-0.2784883645829067,-0.04031082501765193","0.07004997715874661,0.40859431628906884,0.5522929170622126",177,102,353,240,"1.0,-0.2784883645829067,-0.04031082501765193",353,"0.3148218664135791,0.3356097028178475,0.6512264970146455",258,162,2.538332900000114
Pri_ET_Study1_5,M,0/0/1900,2022-07-11_13h49.44.662,138,test,Prioritise3,1,triangle,square,circle,cross,"-0.15913672951032076,0.48350679120805196,0.18230705521727808","0.15891936573799903,0.3831804895186659,0.5999565135488085","1.0,-0.20571451687417974,0.18014638001872707","0.9677931896988998,0.1712594071065523,-1.0",206,247,337,81,"0.15891936573799903,0.3831804895186659,0.5999565135488085",247,"0.8168605703912253,0.13684827598857496,0.6213530935889016",291,243,2.558147700000063
Pri_ET_Study1_5,M,0/0/1900,2022-07-11_13h49.44.662,139,test,Prioritise4,3,cross,square,triangle,circle,"1.0,-0.13815640460244194,0.305409278040333","1.0,-0.23006636068103248,-0.5135224369802548","0.18759316868675757,0.45946387343509576,-0.8398972692549822","0.4665589352747248,0.2840716923699367,0.6714844115718321",327,24,149,268,"0.4665589352747248,0.2840716923699367,0.6714844115718321",268,"0.35968141037855483,0.3209804608831912,0.6599831247203418",261,196,3.434123400000317
Pri_ET_Study1_5,M,0/0/1900,2022-07-11_13h49.44.662,140,test,Prioritise1,3,circle,square,cross,triangle,"-0.09355100115627091,0.45554214766479406,0.3928507547204487","1.0,0.1377261376429495,-1.0","-0.09478536258948067,0.49485771099788134,-0.15929400236046964","0.35978173682339754,0.41977397962065344,-1.0",223,76,183,133,"0.35978173682339754,0.41977397962065344,-1.0",133,"0.6765582342033039,0.31440040312493167,-1.0",106,177,3.3322369000002254
Pri_ET_Study1_5,M,0/0/1900,2022-07-11_13h49.44.662,141,test,Prioritise1,1,circle,cross,triangle,square,"-0.15087465470231598,0.47711162872615454,0.24867635980838454","0.7127176267031001,0.18557291042394586,0.6506302425082333","1.0,-0.16269839246793216,-0.7181852224820324","0.8072476110492377,0.25673500061136667,-1.0",211,284,35,95,"0.7127176267031001,0.18557291042394586,0.6506302425082333",284,"0.7362113369355152,0.2892555466706437,-1.0",101,2,7.324230600000192
Pri_ET_Study1_5,M,0/0/1900,2022-07-11_13h49.44.662,142,test,NoPrioritise,0,square,cross,circle,triangle,"-0.12538192785381974,0.49466166942996614,-0.0651744334368548","0.6048714455845987,0.34221696469187823,-1.0","1.0,-0.06852917744512788,-1.0","1.0,-0.06229796743051119,0.4171389626044979",189,112,48,317,"-0.12538192785381974,0.49466166942996614,-0.0651744334368548",189,"1.0,-0.09100024043058197,-1.0",45,15,3.8601536000001033
Pri_ET_Study1_5,M,0/0/1900,2022-07-11_13h49.44.662,143,test,Prioritise1,1,cross,circle,triangle,square,"0.8885895249151152,0.10029123080933622,0.593298310174416","1.0,0.12391818455152381,-1.0","-0.08288077159008311,0.49449913405181634,-0.1914000323192474","0.18599750731146814,0.3752337008299145,0.6114718629309206",296,74,181,249,"1.0,0.12391818455152381,-1.0",74,"1.0,0.022205290041545256,-1.0",60,85,2.4644846999999572
Pri_ET_Study1_5,M,0/0/1900,2022-07-11_13h49.44.662,144,test,Prioritise2,0,circle,cross,square,triangle,"-0.017538974095646753,0.43320838581829424,0.48452289736445553","1.0,-0.2117453636986133,0.16700499532847024","0.7278119810668549,0.17880451220180715,0.6471802765379799","0.6885060196604067,0.3095143481419429,-1.0",232,338,285,105,"-0.017538974095646753,0.43320838581829424,0.48452289736445553",232,"0.4981526525436166,0.3791643150394166,-1.0",121,62,4.865663900000072
Pri_ET_Study1_5,M,0/0/1900,2022-07-11_13h49.44.662,145,test,Prioritise2,2,triangle,square,cross,circle,"1.0,-0.1558548551326704,-0.7405909184559469","0.3485477954945324,0.4227267056127266,-1.0","0.9342399836420399,0.1906568045828605,-1.0","1.0,-0.10844910144201803,0.3519141850209708",36,134,84,323,"0.9342399836420399,0.1906568045828605,-1.0",84,"0.854028730639278,0.2336538600688729,-1.0",91,151,7.977556999999706
Pri_ET_Study1_5,M,0/0/1900,2022-07-11_13h49.44.662,146,test,Prioritise3,0,square,circle,triangle,cross,"0.8189948021797893,0.2510686603392729,-1.0","0.14752787305018233,0.4669625621869047,-0.7174796825499677","1.0,-0.14190666083918357,-0.7896703829265752","-0.1334211421392112,0.46921826779504494,0.31151742599586085",94,153,38,216,"0.8189948021797893,0.2510686603392729,-1.0",94,"0.7874973343482177,0.15108074255601633,0.6309286527694675",289,225,10.53796900000043
Pri_ET_Study1_5,M,0/0/1900,2022-07-11_13h49.44.662,147,test,Prioritise2,1,circle,cross,triangle,square,"1.0,-0.03828278687151976,-1.0","0.3485477954945324,0.4227267056127266,-1.0","-0.12966480223349675,0.49444262706220066,-0.04980752507879116","1.0,-0.19952917352700617,0.19318579588388318",52,134,190,336,"0.3485477954945324,0.4227267056127266,-1.0",134,"-0.0789607698268403,0.4510515800167316,0.41453817725242015",225,109,11.345487199999752
Pri_ET_Study1_5,M,0/0/1900,2022-07-11_13h49.44.662,148,test,Prioritise3,3,circle,cross,square,triangle,"0.3485477954945324,0.4227267056127266,-1.0","1.0,-0.14892208927791584,-0.7642951287839744","-0.1582066093163167,0.48234509352938293,0.19584550247902222","0.5902286499321849,0.2372037618456999,0.6692134526599127",134,37,207,276,"0.5902286499321849,0.2372037618456999,0.6692134526599127",276,"0.9898363577373541,0.15802139914365565,-1.0",79,302,1.6521810999997797
Pri_ET_Study1_5,M,0/0/1900,2022-07-11_13h49.44.662,149,test,NoPrioritise,3,circle,square,cross,triangle,"1.0,-0.27567226916307197,-0.025990342729996674","1.0,0.10990102188412854,-1.0","-0.07663707943429687,0.49424057193593485,-0.2075945922293636","0.5453823652594301,0.36344457638027117,-1.0",352,72,180,117,"0.5453823652594301,0.36344457638027117,-1.0",117,"-0.03665861455697994,0.4386499069954206,0.4655003413302212",230,13,7.225234300000011
Pri_ET_Study1_5,M,0/0/1900,2022-07-11_13h49.44.662,150,test,NoPrioritise,3,cross,triangle,circle,square,"0.31518019558100097,0.43119815975599396,-1.0","1.0,-0.2897135245148047,-0.23135156862016248","0.4051864188365102,0.30563705046778256,0.6664498358678796","1.0,-0.02312336799965975,0.4668836380243213",137,6,264,312,"1.0,-0.02312336799965975,0.4668836380243213",312,"0.07004997715874661,0.40859431628906884,0.5522929170622126",240,196,18.47790060000034
Pri_ET_Study1_5,M,0/0/1900,2022-07-11_13h49.44.662,151,test,Prioritise2,3,triangle,cross,square,circle,"-0.10032491436032498,0.45768874039972984,0.3817396096664756","1.0,-0.22467733398512213,-0.5303566464837048","0.7578023835242338,0.165070026077772,0.63954193062201","-0.03545149328753128,0.4915787209123279,-0.3069086161051545",222,25,287,174,"-0.03545149328753128,0.4915787209123279,-0.3069086161051545",174,"0.2563330525591274,0.3540064263668754,0.6360281906414551",254,193,2.7203175999998166
Pri_ET_Study1_5,M,0/0/1900,2022-07-11_13h49.44.662,152,test,Prioritise2,3,cross,triangle,circle,square,"1.0,-0.10086551076024819,0.3631766774585774","-0.14715582087117385,0.4925402828135286,0.025608434090147236","0.13253781604398185,0.3908200528647623,0.5874938236427092","1.0,-0.06852917744512788,-1.0",322,195,245,48,"1.0,-0.06852917744512788,-1.0",48,"0.013319861281873457,0.4245182348375207,0.5115287599103473",235,190,5.678186699999969
Pri_ET_Study1_5,M,0/0/1900,2022-07-11_13h49.44.662,153,test,Prioritise3,0,square,triangle,circle,cross,"1.0,-0.2541916545294901,-0.43193236346031305","0.509921421288337,0.37533864292099284,-1.0","-0.15857178695416452,0.48845422840718666,0.1127707600476957","1.0,0.0885108071490186,-1.0",19,120,201,69,"1.0,-0.2541916545294901,-0.43193236346031305",19,"1.0,-0.16269839246793216,-0.7181852224820324",35,20,3.064034900000024
Pri_ET_Study1_5,M,0/0/1900,2022-07-11_13h49.44.662,154,test,Prioritise2,3,cross,circle,square,triangle,"0.35968141037855483,0.3209804608831912,0.6599831247203418","0.6526534052453359,0.32395804637990677,-1.0","1.0,-0.06852917744512788,-1.0","-0.11850987372908683,0.4637398184337027,0.34737226103556385",261,108,48,219,"-0.11850987372908683,0.4637398184337027,0.34737226103556385",219,"1.0,-0.28331765203541326,-0.06912673399707303",355,115,6.686051700000007
Pri_ET_Study1_5,M,0/0/1900,2022-07-11_13h49.44.662,155,test,Prioritise4,1,cross,circle,square,triangle,"0.9342399836420399,0.1906568045828605,-1.0","1.0,-0.2692625012388049,0.0024658652101630096","0.23950483221035568,0.4487573681220651,-1.0","0.07004997715874661,0.40859431628906884,0.5522929170622126",84,350,144,240,"1.0,-0.2692625012388049,0.0024658652101630096",350,"0.07004997715874661,0.40859431628906884,0.5522929170622126",240,17,11.506198900000072
Pri_ET_Study1_5,M,0/0/1900,2022-07-11_13h49.44.662,156,test,NoPrioritise,1,cross,triangle,square,circle,"1.0,-0.2759589912597996,-0.3378595329546661","0.03656203285471027,0.4839890544285097,-0.46499532916065","0.08211922552252782,0.40518924666980105,0.5597871012004456","0.8189948021797893,0.2510686603392729,-1.0",13,165,241,94,"0.03656203285471027,0.4839890544285097,-0.46499532916065",165,"0.6168077568629242,0.33775906377670717,-1.0",111,281,16.14654410000003
Pri_ET_Study1_5,M,0/0/1900,2022-07-11_13h49.44.662,157,test,Prioritise1,1,cross,circle,square,triangle,"-0.13746749759655974,0.49384364036211803,-0.01935357496354817","1.0,-0.14892208927791584,-0.7642951287839744","0.854028730639278,0.2336538600688729,-1.0","0.21370971933434912,0.36697709911931464,0.6220261074603506",192,37,91,251,"1.0,-0.14892208927791584,-0.7642951287839744",37,"0.7578023835242338,0.165070026077772,0.63954193062201",287,263,11.269008799999938
Pri_ET_Study1_5,M,0/0/1900,2022-07-11_13h49.44.662,158,test,Prioritise1,0,square,circle,triangle,cross,"1.0,-0.20571451687417974,0.18014638001872707","1.0,-0.24030349193845646,-0.4804258498410512","0.3446475566939091,0.32593623267112437,0.6573177271493604","0.9566713411825642,0.17778746275501622,-1.0",337,22,260,82,"1.0,-0.20571451687417974,0.18014638001872707",337,"1.0,-0.07007995956776203,0.4066709204115653",318,243,3.7623632999998335
Pri_ET_Study1_5,M,0/0/1900,2022-07-11_13h49.44.662,159,test,NoPrioritise,1,cross,triangle,square,circle,"0.509921421288337,0.37533864292099284,-1.0","0.024156992038590452,0.42147876676365525,0.5201127943356356","1.0,0.023895135487088437,0.520455959599228","1.0,-0.13481497066722903,-0.8172789642511413",120,236,306,39,"0.024156992038590452,0.42147876676365525,0.5201127943356356",236,"1.0,-0.2784883645829067,-0.04031082501765193",353,88,3.371151999999711
Pri_ET_Study1_5,M,0/0/1900,2022-07-11_13h49.44.662,160,test,Prioritise3,2,square,cross,triangle,circle,"0.14752787305018233,0.4669625621869047,-0.7174796825499677","0.9165223056430671,0.08531838961047389,0.5804719469242157","-0.137653653553384,0.47091943313012696,0.2992494234533911","0.7362113369355152,0.2892555466706437,-1.0",153,298,215,101,"-0.137653653553384,0.47091943313012696,0.2992494234533911",215,"1.0,-0.1453950522675579,0.29343624696038684",328,67,3.8608554000002187
Pri_ET_Study1_5,M,0/0/1900,2022-07-11_13h49.44.662,161,test,Prioritise1,0,square,circle,cross,triangle,"0.7578023835242338,0.165070026077772,0.63954193062201","1.0,-0.14190666083918357,-0.7896703829265752","0.23950483221035568,0.4487573681220651,-1.0","-0.1160886962144162,0.49493957268076216,-0.09618366371381681",287,38,144,187,"0.7578023835242338,0.165070026077772,0.63954193062201",287,"-0.15601024525342333,0.4900377710624384,0.08414494382818494",199,235,1.861048799999935
Pri_ET_Study1_5,M,0/0/1900,2022-07-11_13h49.44.662,162,test,Prioritise4,3,cross,triangle,square,circle,"0.2277843781848521,0.3627318956570289,0.6269388339435948","1.0,-0.2810383691272422,-0.05469022987079308","-0.15936350859590664,0.487578374203653,0.1269149288768463","0.3373683384989987,0.425614728337375,-1.0",252,354,202,135,"0.3373683384989987,0.425614728337375,-1.0",135,"1.0,-0.265680167273015,0.01659727634298691",349,100,2.703661800000191
Pri_ET_Study1_5,M,0/0/1900,2022-07-11_13h49.44.662,163,test,Prioritise1,1,triangle,cross,circle,square,"0.09948789533259128,0.47503830359136323,-0.601955130836429","1.0,0.016090771115826907,0.5120159997035829","1.0,0.029697581538389972,-1.0","0.04661056885000425,0.4151827959781793,0.5366388806382338",158,307,61,238,"1.0,0.016090771115826907,0.5120159997035829",307,"0.6646065852612066,0.3192149609683923,-1.0",107,246,3.781105699999898
Pri_ET_Study1_5,M,0/0/1900,2022-07-11_13h49.44.662,164,test,NoPrioritise,0,square,circle,triangle,cross,"1.0,-0.16655302622891022,0.25673909055504174","-0.1336957186097738,0.49417000388378884,-0.03453353894846056","0.8771865507724368,0.22170185938115816,-1.0","0.024156992038590452,0.42147876676365525,0.5201127943356356",331,191,89,236,"1.0,-0.16655302622891022,0.25673909055504174",331,"-0.1481252589400609,0.4756545429797898,0.26153874370652797",212,50,10.187269200000173
Pri_ET_Study1_5,M,0/0/1900,2022-07-11_13h49.44.662,165,test,Prioritise1,0,triangle,cross,square,circle,"0.0809641014742315,0.4778728517952051,-0.560834903418019","0.43579397082986615,0.29501209376045523,0.6694809165992386","1.0,-0.18904346603826983,-0.637249894721835","0.8189948021797893,0.2510686603392729,-1.0",160,266,31,94,"0.0809641014742315,0.4778728517952051,-0.560834903418019",160,"0.38995744222104256,0.31083082350540914,0.6645497918058341",263,270,6.181387900000118
Pri_ET_Study1_5,M,0/0/1900,2022-07-11_13h49.44.662,166,test,Prioritise1,2,circle,square,cross,triangle,"-0.137653653553384,0.47091943313012696,0.2992494234533911","0.9973143857544444,0.03943765994348003,0.5367265506444097","0.4051864188365102,0.30563705046778256,0.6664498358678796","1.0,-0.283482916447115,-0.29186272671519153",215,304,264,10,"0.4051864188365102,0.30563705046778256,0.6664498358678796",264,"0.4051864188365102,0.30563705046778256,0.6664498358678796",264,39,13.82526850000022
Pri_ET_Study1_5,M,0/0/1900,2022-07-11_13h49.44.662,167,test,Prioritise2,2,cross,circle,triangle,square,"0.5128942075651803,0.26707393527284795,0.6725600501236935","-0.1336957186097738,0.49417000388378884,-0.03453353894846056","0.8189948021797893,0.2510686603392729,-1.0","1.0,-0.27293323902243416,-0.35332683897484074",271,191,94,14,"0.8189948021797893,0.2510686603392729,-1.0",94,"-0.13746749759655974,0.49384364036211803,-0.01935357496354817",192,191,3.5124221999999463
Pri_ET_Study1_5,M,0/0/1900,2022-07-11_13h49.44.662,168,test,NoPrioritise,0,triangle,square,cross,circle,"1.0,-0.18904346603826983,-0.637249894721835","-0.01269399205840449,0.48953144240138324,-0.3581525544909092","0.47470490157818523,0.38660875671905104,-1.0","0.7428418032534498,0.17196979648312705,0.6434837115546581",31,171,123,286,"1.0,-0.18904346603826983,-0.637249894721835",31,"-0.09355100115627091,0.45554214766479406,0.3928507547204487",223,291,1.7959439999999631
Pri_ET_Study1_5,M,0/0/1900,2022-07-11_13h49.44.662,169,test,Prioritise2,2,square,triangle,circle,cross,"-0.11109230792064029,0.494998675286374,-0.11182488810932678","0.8885895249151152,0.10029123080933622,0.593298310174416","0.8307090529045498,0.2453327610063578,-1.0","-0.02724900693809007,0.43596400275120595,0.47511170232003863",186,296,93,231,"0.8307090529045498,0.2453327610063578,-1.0",93,"1.0,-0.06852917744512788,-1.0",48,120,4.137271999999939
Pri_ET_Study1_5,M,0/0/1900,2022-07-11_13h49.44.662,170,test,Prioritise3,0,square,cross,circle,triangle,"1.0,-0.27567226916307197,-0.025990342729996674","0.7836643519746782,0.2678576623980824,-1.0","-0.09355100115627091,0.45554214766479406,0.3928507547204487","0.7874973343482177,0.15108074255601633,0.6309286527694675",352,97,223,289,"1.0,-0.27567226916307197,-0.025990342729996674",352,"0.17237529551869346,0.3792456671279014,0.6058334931269098",248,162,1.5403289000000768
Pri_ET_Study1_5,M,0/0/1900,2022-07-11_13h49.44.662,171,test,Prioritise2,1,square,triangle,circle,cross,"0.13253781604398185,0.3908200528647623,0.5874938236427092","0.37106831880418345,0.41675617985472035,-1.0","0.7874973343482177,0.15108074255601633,0.6309286527694675","-0.0889322071979689,0.49470485377678974,-0.17530036558846096",245,132,289,182,"0.37106831880418345,0.41675617985472035,-1.0",132,"0.2563330525591274,0.3540064263668754,0.6360281906414551",254,264,26.92820589999974
Pri_ET_Study1_5,M,0/0/1900,2022-07-11_13h49.44.662,172,test,Prioritise4,1,square,triangle,circle,cross,"0.04661056885000425,0.4151827959781793,0.5366388806382338","1.0,-0.015534070910116049,-1.0","-0.14097292288545527,0.4934633616179327,-0.004268922352566595","0.4282253351913974,0.40067838587068505,-1.0",238,55,193,127,"1.0,-0.015534070910116049,-1.0",55,"0.6364477477613335,0.21838082541010184,0.6641383826852352",279,252,1.6768949000002067
Pri_ET_Study1_5,M,0/0/1900,2022-07-11_13h49.44.662,173,test,Prioritise1,1,square,triangle,circle,cross,"0.3937919637711427,0.41052389502637143,-1.0","-0.14097292288545527,0.4934633616179327,-0.004268922352566595","0.27079222332264496,0.349525727356639,0.6402021298134932","0.911575527904773,0.20327130372654878,-1.0",130,193,255,86,"-0.14097292288545527,0.4934633616179327,-0.004268922352566595",193,"1.0,-0.28849207683894174,-0.11276294357485506",358,19,9.745286400000168
Pri_ET_Study1_5,M,0/0/1900,2022-07-11_13h49.44.662,174,test,Prioritise1,1,cross,circle,square,triangle,"1.0,-0.1159761024614836,0.3405028198215041","0.6048714455845987,0.34221696469187823,-1.0","-0.1552691192795369,0.47984650043174004,0.22253130766167373","1.0,0.07402842417913646,-1.0",324,112,209,67,"0.6048714455845987,0.34221696469187823,-1.0",112,"0.8744524420551003,0.1077067653533772,0.5993718879433354",295,207,2.7925163999998404
Pri_ET_Study1_5,M,0/0/1900,2022-07-11_13h49.44.662,175,test,Prioritise4,0,square,circle,cross,triangle,"-0.09355100115627091,0.45554214766479406,0.3928507547204487","1.0,-0.02312336799965975,0.4668836380243213","-0.03545149328753128,0.4915787209123279,-0.3069086161051545","0.7836643519746782,0.2678576623980824,-1.0",223,312,174,97,"-0.09355100115627091,0.45554214766479406,0.3928507547204487",223,"1.0,-0.28545618498147696,-0.27665271730440133",9,172,12.945686800000203
Pri_ET_Study1_5,M,0/0/1900,2022-07-11_13h49.44.662,176,test,Prioritise4,2,cross,circle,square,triangle,"-0.004817967995419115,0.4887422579776717,-0.37551595656205394","0.6526534052453359,0.32395804637990677,-1.0","1.0,-0.1159761024614836,0.3405028198215041","0.002753009035763032,0.42748599986642954,0.5027340537090634",170,108,324,234,"1.0,-0.1159761024614836,0.3405028198215041",324,"-0.1160886962144162,0.49493957268076216,-0.09618366371381681",187,13,2.6722607000001517
Pri_ET_Study1_5,M,0/0/1900,2022-07-11_13h49.44.662,177,test,Prioritise3,0,cross,triangle,circle,square,"0.5929450132200651,0.3466038519932022,-1.0","1.0,-0.2787294505909397,-0.3224626175099854","0.7874973343482177,0.15108074255601633,0.6309286527694675","1.0,0.022205290041545256,-1.0",113,12,289,60,"0.5929450132200651,0.3466038519932022,-1.0",113,"0.31518019558100097,0.43119815975599396,-1.0",137,206,4.2819925999997395
Pri_ET_Study1_5,M,0/0/1900,2022-07-11_13h49.44.662,178,test,Prioritise4,3,circle,cross,square,triangle,"1.0,-0.07783297952557244,0.3960373748090056","0.7954699681646173,0.26233143705175754,-1.0","-0.10043403746491275,0.49495767021285575,-0.14337977127983403","1.0,-0.13481497066722903,-0.8172789642511413",319,96,184,39,"1.0,-0.13481497066722903,-0.8172789642511413",39,"1.0,-0.2905679542092485,-0.21635494529981825",5,91,3.4537967999999637
Pri_ET_Study1_5,M,0/0/1900,2022-07-11_13h49.44.662,179,test,NoPrioritise,3,cross,triangle,circle,square,"1.0,-0.20571451687417974,0.18014638001872707","0.3373683384989987,0.425614728337375,-1.0","1.0,0.022205290041545256,-1.0","-0.045760705841983884,0.4412666063320212,0.45569155140365925",337,135,60,229,"-0.045760705841983884,0.4412666063320212,0.45569155140365925",229,"1.0,-0.2692625012388049,0.0024658652101630096",350,184,5.095956100000421
Pri_ET_Study1_5,M,0/0/1900,2022-07-11_13h49.44.662,180,test,Prioritise3,3,triangle,cross,circle,square,"-0.12966480223349675,0.49444262706220066,-0.04980752507879116","1.0,-0.2784883645829067,-0.04031082501765193","1.0,0.007155954649565421,-1.0","0.3485477954945324,0.4227267056127266,-1.0",190,353,58,134,"0.3485477954945324,0.4227267056127266,-1.0",134,"1.0,-0.15960027999342463,0.2690977661520819",330,74,3.9798178999999436
Pri_ET_Study1_5,M,0/0/1900,2022-07-11_13h49.44.662,181,test,Prioritise3,1,circle,cross,triangle,square,"-0.02724900693809007,0.43596400275120595,0.47511170232003863","1.0,-0.29111130123666484,-0.15686324257888173","1.0,-0.015534070910116049,-1.0","0.3485477954945324,0.4227267056127266,-1.0",231,1,55,134,"1.0,-0.29111130123666484,-0.15686324257888173",1,"0.13253781604398185,0.3908200528647623,0.5874938236427092",245,219,4.130949599999894
Pri_ET_Study1_5,M,0/0/1900,2022-07-11_13h49.44.662,182,test,Prioritise1,0,circle,cross,square,triangle,"0.2081252941518954,0.4553611512282272,-0.9356957589344492","0.5593128013847881,0.24938009178326226,0.6713213889936891","1.0,-0.2853220527670477,-0.0836186653125478","-0.12966480223349675,0.49444262706220066,-0.04980752507879116",147,274,356,190,"0.2081252941518954,0.4553611512282272,-0.9356957589344492",147,"0.7874973343482177,0.15108074255601633,0.6309286527694675",289,267,1.677427600000101
Pri_ET_Study1_5,M,0/0/1900,2022-07-11_13h49.44.662,183,test,Prioritise1,0,cross,square,circle,triangle,"1.0,-0.20149881210311282,-0.6002331830476271","-0.1334211421392112,0.46921826779504494,0.31151742599586085","0.509921421288337,0.37533864292099284,-1.0","1.0,-0.1308360377071882,0.3172469791017578",29,216,120,326,"1.0,-0.20149881210311282,-0.6002331830476271",29,"-0.07020697204541848,0.49392917223661503,-0.22388609625324785",179,35,1.5109762000001865
Pri_ET_Study1_5,M,0/0/1900,2022-07-11_13h49.44.662,184,test,NoPrioritise,3,circle,triangle,cross,square,"-0.01269399205840449,0.48953144240138324,-0.3581525544909092","0.04661056885000425,0.4151827959781793,0.5366388806382338","1.0,-0.20149881210311282,-0.6002331830476271","1.0,0.00043266500642058503,0.4945408245860483",171,238,29,309,"1.0,0.00043266500642058503,0.4945408245860483",309,"0.03525654226328623,0.4183671124064994,0.5284836519992187",237,40,57.11883229999967
Pri_ET_Study1_5,M,0/0/1900,2022-07-11_13h49.44.662,185,test,Prioritise3,3,circle,triangle,cross,square,"1.0,-0.18262560807777894,-0.6564771422547051","1.0,-0.02312336799965975,0.4668836380243213","0.8189948021797893,0.2510686603392729,-1.0","-0.11280811015512238,0.4617870748317987,0.35899735609320693",32,312,94,220,"-0.11280811015512238,0.4617870748317987,0.35899735609320693",220,"0.19781922438295352,0.4574422518266765,-0.8818361039644314",148,234,31.410452799999803
Pri_ET_Study1_5,M,0/0/1900,2022-07-11_13h49.44.662,186,test,Prioritise4,0,square,cross,triangle,circle,"0.35968141037855483,0.3209804608831912,0.6599831247203418","0.9229356114863154,0.19699631777014193,-1.0","1.0,-0.18904346603826983,-0.637249894721835","1.0,-0.13815640460244194,0.305409278040333",261,85,31,327,"0.35968141037855483,0.3209804608831912,0.6599831247203418",261,"1.0,-0.007413941176475647,0.4855113905503705",310,130,3.0478384000002734
Pri_ET_Study1_5,M,0/0/1900,2022-07-11_13h49.44.662,187,test,Prioritise1,2,triangle,cross,square,circle,"1.0,-0.21761393967782516,0.1537648375256555","0.07186027412725471,0.47920645949573504,-0.5409731165987569","-0.045760705841983884,0.4412666063320212,0.45569155140365925","0.7836643519746782,0.2678576623980824,-1.0",339,161,229,97,"-0.045760705841983884,0.4412666063320212,0.45569155140365925",229,"0.28536486694739915,0.3449661378960809,0.6441272460635925",256,192,6.007983299999978
Pri_ET_Study1_5,M,0/0/1900,2022-07-11_13h49.44.662,188,test,Prioritise2,3,cross,square,circle,triangle,"1.0,-0.07007995956776203,0.4066709204115653","0.49743207809976986,0.2728177294164349,0.672458831583457","-0.14500574250124976,0.47413711311303364,0.2742570559677715","0.7718332302050808,0.2733134055615505,-1.0",318,270,213,98,"0.7718332302050808,0.2733134055615505,-1.0",98,"1.0,-0.12344048141961106,0.3289459564990056",325,251,3.794845400000213
Pri_ET_Study1_5,M,0/0/1900,2022-07-11_13h49.44.662,189,test,Prioritise2,3,cross,square,circle,triangle,"1.0,0.007155954649565421,-1.0","-0.13746749759655974,0.49384364036211803,-0.01935357496354817","1.0,-0.07783297952557244,0.3960373748090056","0.4864131283203974,0.38292092452220805,-1.0",58,192,319,122,"0.4864131283203974,0.38292092452220805,-1.0",122,"0.6056610145008174,0.2310032177113197,0.6677762187869551",277,263,10.197529600000053
Pri_ET_Study1_5,M,0/0/1900,2022-07-11_13h49.44.662,190,test,Prioritise4,2,triangle,cross,circle,square,"1.0,-0.015534070910116049,-1.0","-0.1481252589400609,0.4756545429797898,0.26153874370652797","1.0,-0.17339639938985352,0.2442586263282529","0.2563330525591274,0.3540064263668754,0.6360281906414551",55,212,332,254,"1.0,-0.17339639938985352,0.2442586263282529",332,"0.49743207809976986,0.2728177294164349,0.672458831583457",270,253,9.014394400000128
Pri_ET_Study1_5,M,0/0/1900,2022-07-11_13h49.44.662,191,test,NoPrioritise,1,square,triangle,circle,cross,"0.6823545184579658,0.19890605819631269,0.6567852503614975","1.0,-0.13481497066722903,-0.8172789642511413","-0.15745197328482874,0.48927392525561153,0.09851328502402845","1.0,-0.223312447401106,0.14042906010430367",282,39,200,340,"1.0,-0.13481497066722903,-0.8172789642511413",39,"1.0,-0.19533700364355222,-0.6185256211936343",30,344,5.548661799999991
Pri_ET_Study1_5,M,0/0/1900,2022-07-11_13h49.44.662,192,test,Prioritise3,0,square,triangle,cross,circle,"-0.017538974095646753,0.43320838581829424,0.48452289736445553","-0.06359610428535867,0.4935649245563736,-0.24027710533734647","1.0,-0.29113614091237483,-0.20140827106110581","0.4864131283203974,0.38292092452220805,-1.0",232,178,4,122,"-0.017538974095646753,0.43320838581829424,0.48452289736445553",232,"0.3485477954945324,0.4227267056127266,-1.0",134,158,11.859924500000034
Pri_ET_Study1_5,M,0/0/1900,2022-07-11_13h49.44.662,193,test,Prioritise2,0,triangle,cross,circle,square,"1.0,-0.22467733398512213,-0.5303566464837048","0.2419946445565604,0.35840841428502257,0.6316066564714324","0.2607905457923898,0.44405077031286466,-1.0","1.0,0.08129056571751603,-1.0",25,253,142,68,"1.0,-0.22467733398512213,-0.5303566464837048",25,"0.8423878648894922,0.2395276862660105,-1.0",92,127,14.16344590000017
Pri_ET_Study1_5,M,0/0/1900,2022-07-11_13h49.44.662,194,test,Prioritise4,3,square,circle,cross,triangle,"1.0,-0.04666697700988032,0.4375655321668761","1.0,0.029697581538389972,-1.0","0.6407010103455535,0.32862970770224886,-1.0","1.0,-0.266139671692747,-0.3844942650329082",315,61,109,16,"1.0,-0.266139671692747,-0.3844942650329082",16,"1.0,-0.28715474606071,-0.26149890951485844",8,239,25.13616809999985
Pri_ET_Study1_5,M,0/0/1900,2022-07-11_13h49.44.662,195,test,NoPrioritise,3,triangle,circle,square,cross,"0.9342399836420399,0.1906568045828605,-1.0","1.0,-0.20752138035248524,-0.5823144238115788","1.0,0.023895135487088437,0.520455959599228","0.1673887875274096,0.46333008938060627,-0.7729226224565875",84,28,306,151,"0.1673887875274096,0.46333008938060627,-0.7729226224565875",151,"0.49743207809976986,0.2728177294164349,0.672458831583457",270,323,31.401231899999402
Pri_ET_Study1_5,M,0/0/1900,2022-07-11_13h49.44.662,196,test,Prioritise2,0,square,triangle,circle,cross,"0.984183681480933,0.0471694796759472,0.544551712303033","0.8307090529045498,0.2453327610063578,-1.0","1.0,-0.23006636068103248,-0.5135224369802548","0.17237529551869346,0.3792456671279014,0.6058334931269098",303,93,24,248,"0.984183681480933,0.0471694796759472,0.544551712303033",303,"1.0,-0.053431764767480794,-1.0",50,128,4.129910699999527
Pri_ET_Study1_5,M,0/0/1900,2022-07-11_13h49.44.662,197,test,Prioritise4,2,triangle,circle,square,cross,"1.0,-0.29113614091237483,-0.20140827106110581","0.25011230249462657,0.4464347244570299,-1.0","0.17237529551869346,0.3792456671279014,0.6058334931269098","1.0,0.11693500061052231,-1.0",4,143,248,73,"0.17237529551869346,0.3792456671279014,0.6058334931269098",248,"0.10890282843090082,0.4735368131811257,-0.6233623294930688",157,253,16.780959799999437
Pri_ET_Study1_5,M,0/0/1900,2022-07-11_13h49.44.662,198,test,Prioritise3,3,triangle,square,cross,circle,"0.09948789533259128,0.47503830359136323,-0.601955130836429","1.0,-0.16655302622891022,0.25673909055504174","0.5128942075651803,0.26707393527284795,0.6725600501236935","0.6646065852612066,0.3192149609683923,-1.0",158,331,271,107,"0.6646065852612066,0.3192149609683923,-1.0",107,"0.07004997715874661,0.40859431628906884,0.5522929170622126",240,53,17.56769879999956
Pri_ET_Study1_5,M,0/0/1900,2022-07-11_13h49.44.662,199,test,Prioritise4,2,cross,square,circle,triangle,"0.11962807502985351,0.3945255124543332,0.5809118383777745","1.0,-0.2759589912597996,-0.3378595329546661","0.6048714455845987,0.34221696469187823,-1.0","0.003196340864616065,0.48789947231709707,-0.3930376390559923",244,13,112,169,"0.6048714455845987,0.34221696469187823,-1.0",112,"1.0,-0.21761393967782516,0.1537648375256555",339,37,2.7387588000001415
Pri_ET_Study1_5,M,0/0/1900,2022-07-11_13h49.44.662,200,test,Prioritise4,0,triangle,cross,square,circle,"0.6168077568629242,0.33775906377670717,-1.0","-0.0789607698268403,0.4510515800167316,0.41453817725242015","0.4511598862406947,0.28958122135142217,0.6706112376461497","1.0,0.007155954649565421,-1.0",111,225,267,58,"0.6168077568629242,0.33775906377670717,-1.0",111,"0.6287517000804042,0.333230015934751,-1.0",110,265,5.139299600000413
Pri_ET_Study1_5,M,0/0/1900,2022-07-11_13h49.44.662,201,test,Prioritise1,2,square,triangle,circle,cross,"1.0,0.022205290041545256,-1.0","1.0,-0.2905255226561695,-0.14211314919909668","0.6517915958318632,0.21196052870658733,0.661939301509457","0.1377313063497616,0.46869198128419454,-0.6923217342230605",60,0,280,154,"0.6517915958318632,0.21196052870658733,0.661939301509457",280,"1.0,-0.289651960671372,-0.12741280502186536",359,5,2.5451952000003075
Pri_ET_Study1_5,M,0/0/1900,2022-07-11_13h49.44.662,202,test,Prioritise2,1,cross,circle,square,triangle,"1.0,-0.2692625012388049,0.0024658652101630096","0.2715377535601935,0.44160513045338035,-1.0","0.5128942075651803,0.26707393527284795,0.6725600501236935","0.7362113369355152,0.2892555466706437,-1.0",350,141,271,101,"0.2715377535601935,0.44160513045338035,-1.0",141,"0.9026141269879491,0.09282770385166228,0.5869975937203944",297,302,3.275135400000181
Pri_ET_Study1_5,M,0/0/1900,2022-07-11_13h49.44.662,203,test,Prioritise3,2,square,triangle,cross,circle,"0.8307090529045498,0.2453327610063578,-1.0","0.3000437839717358,0.34032750492681907,0.6478023910819077","0.9165223056430671,0.08531838961047389,0.5804719469242157","-0.06359610428535867,0.4935649245563736,-0.24027710533734647",93,257,298,178,"0.9165223056430671,0.08531838961047389,0.5804719469242157",298,"0.9303101871846857,0.07776559495072588,0.5737236459068971",299,80,1.7587218999997276
Pri_ET_Study1_5,M,0/0/1900,2022-07-11_13h49.44.662,204,test,Prioritise3,1,triangle,circle,cross,square,"0.37106831880418345,0.41675617985472035,-1.0","0.3148218664135791,0.3356097028178475,0.6512264970146455","1.0,-0.14190666083918357,-0.7896703829265752","1.0,0.00043266500642058503,0.4945408245860483",132,258,38,309,"0.3148218664135791,0.3356097028178475,0.6512264970146455",258,"1.0,-0.19533700364355222,-0.6185256211936343",30,28,2.9901794999996127
Pri_ET_Study1_5,M,0/0/1900,2022-07-11_13h49.44.662,205,test,Prioritise3,0,cross,triangle,circle,square,"1.0,-0.13815640460244194,0.305409278040333","-0.04273264564935253,0.4921547641531523,-0.29008164886068233","0.37478692104604905,0.3159453148278393,0.6623940312376342","1.0,-0.2583995670372059,-0.4160170008955538",327,175,262,18,"1.0,-0.13815640460244194,0.305409278040333",327,"0.6765582342033039,0.31440040312493167,-1.0",106,355,3.3144712000002983
Pri_ET_Study1_5,M,0/0/1900,2022-07-11_13h49.44.662,206,test,NoPrioritise,2,cross,circle,square,triangle,"-0.15857178695416452,0.48845422840718666,0.1127707600476957","0.4981526525436166,0.3791643150394166,-1.0","1.0,0.13084904670314157,-1.0","0.2419946445565604,0.35840841428502257,0.6316066564714324",201,121,75,253,"1.0,0.13084904670314157,-1.0",75,"1.0,-0.28545618498147696,-0.27665271730440133",9,204,3.8275511000001643
Pri_ET_Study1_5,M,0/0/1900,2022-07-11_13h49.44.662,207,test,Prioritise1,0,square,triangle,cross,circle,"1.0,-0.09842467873037941,-1.0","0.4397882380638529,0.39726260220805054,-1.0","-0.007535811164553707,0.4303825516742039,0.4937312314227156","-0.07663707943429687,0.49424057193593485,-0.2075945922293636",44,126,233,180,"1.0,-0.09842467873037941,-1.0",44,"0.8771865507724368,0.22170185938115816,-1.0",89,325,2.5017667000001893
Pri_ET_Study1_5,M,0/0/1900,2022-07-11_13h49.44.662,208,test,NoPrioritise,1,square,cross,triangle,circle,"0.4981526525436166,0.3791643150394166,-1.0","1.0,-0.28331765203541326,-0.06912673399707303","0.984183681480933,0.0471694796759472,0.544551712303033","-0.14097292288545527,0.4934633616179327,-0.004268922352566595",121,355,303,193,"1.0,-0.28331765203541326,-0.06912673399707303",355,"1.0,-0.2583995670372059,-0.4160170008955538",18,100,1.3442806000002747
Pri_ET_Study1_5,M,0/0/1900,2022-07-11_13h49.44.662,209,test,Prioritise4,1,triangle,circle,cross,square,"0.1377313063497616,0.46869198128419454,-0.6923217342230605","-0.045760705841983884,0.4412666063320212,0.45569155140365925","0.6823545184579658,0.19890605819631269,0.6567852503614975","1.0,-0.10086551076024819,0.3631766774585774",154,229,282,322,"-0.045760705841983884,0.4412666063320212,0.45569155140365925",229,"-0.06301515924349677,0.44629443292921844,0.43549282839157066",227,5,3.327158000000054
Pri_ET_Study1_5,M,0/0/1900,2022-07-11_13h49.44.662,210,test,Prioritise4,2,cross,triangle,square,circle,"1.0,-0.030699357614306977,-1.0","1.0,-0.24425036060701033,0.08619108045783674","0.6517915958318632,0.21196052870658733,0.661939301509457","-0.1598212484830719,0.4866460428277808,0.1409432704458322",53,344,280,203,"0.6517915958318632,0.21196052870658733,0.661939301509457",280,"0.5283655398475315,0.26125276704655587,0.6724040666408482",272,229,2.9647962999997617
Pri_ET_Study1_5,M,0/0/1900,2022-07-11_13h49.44.662,211,test,NoPrioritise,2,triangle,square,cross,circle,"1.0,-0.03828278687151976,-1.0","1.0,-0.2897135245148047,-0.23135156862016248","0.9303101871846857,0.07776559495072588,0.5737236459068971","0.011345098196205106,0.4870029319956142,-0.41073039696963887",52,6,299,168,"0.9303101871846857,0.07776559495072588,0.5737236459068971",299,"-0.12881863109484093,0.46745492896353924,0.32362925960524147",217,67,3.2016320999991876
Pri_ET_Study1_5,M,0/0/1900,2022-07-11_13h49.44.662,212,test,Prioritise1,3,square,cross,circle,triangle,"1.0,0.07402842417913646,-1.0","1.0,-0.28545618498147696,-0.27665271730440133","0.4864131283203974,0.38292092452220805,-1.0","-0.04273264564935253,0.4921547641531523,-0.29008164886068233",67,9,122,175,"-0.04273264564935253,0.4921547641531523,-0.29008164886068233",175,"0.8602068900008202,0.11507220116757,0.6052161878467197",294,128,3.0117508000003
Pri_ET_Study1_5,M,0/0/1900,2022-07-11_13h49.44.662,213,test,Prioritise3,1,triangle,cross,square,circle,"1.0,-0.15254529173699993,0.2813312795320311","1.0,-0.007959551777363516,-1.0","0.1997782184249719,0.37114427631595914,0.6168699381761522","-0.14097292288545527,0.4934633616179327,-0.004268922352566595",329,56,250,193,"1.0,-0.007959551777363516,-1.0",56,"1.0,-0.07604755533137741,-1.0",47,245,3.7559030000002167
